timestamp,ax,ay,az
1630679501060,-0.8078839999999999,0.265045,-0.411811
1630679501069,-0.67283,0.236619,-0.36844
1630679501079,-0.534238,0.188307,-0.30658599999999997
1630679501089,-0.414312,0.139263,-0.24095
1630679501098,-0.307684,0.090219,-0.18178
1630679501108,-0.19276,0.035136,-0.125233
1630679501117,-0.109983,-0.008845,-0.055327
1630679501127,-0.044957,-0.036539,0.006405
1630679501137,-0.025803,-0.043066,0.034099
1630679501146,-0.043188,-0.010492,0.020007999999999998
1630679501156,-0.068259,0.015555,-0.022387
1630679501165,-0.083326,0.032635,-0.053191999999999996
1630679501175,-0.084546,0.029646,-0.06161
1630679501185,-0.063989,0.003538,-0.046787
1630679501194,-0.04453,-0.030134,-0.024949
1630679501204,-0.058498999999999995,-0.056913,-0.019215
1630679501213,-0.11931599999999999,-0.056547,-0.071004
1630679501223,-0.243634,-0.027877,-0.16348
1630679501233,-0.501359,0.077653,-0.30750099999999997
1630679501242,-0.8036139999999999,0.274317,-0.514352
1630679501252,-1.011014,0.410164,-0.747494
1630679501261,-1.0389519999999999,0.376065,-0.821243
1630679501271,-0.933361,0.21862399999999999,-0.712602
1630679501281,-0.8529019999999999,0.080886,-0.643733
1630679501290,-0.817461,0.053253,-0.6682549999999999
1630679501300,-0.882548,0.098393,-0.712602
1630679501309,-1.090497,0.219112,-0.843081
1630679501319,-1.453691,0.351482,-1.074637
1630679501329,-1.792119,0.383446,-1.3678029999999999
1630679501338,-1.933151,0.329949,-1.44814
1630679501348,-1.9014309999999999,0.205631,-1.420873
1630679468481,-1.822314,0.204899,-1.352675
1630679468491,-1.7654619999999999,0.376065,-1.214022
1630679468500,-1.736731,0.508252,-1.094523
1630679468510,-1.71593,0.543266,-1.026081
1630679468520,-1.540494,0.519903,-1.001193
1630679468529,-1.42557,0.47177399999999997,-0.947879
1630679468539,-1.269105,0.463661,-0.897432
1630679468548,-1.140944,0.415471,-0.819169
1630679468558,-0.986553,0.370148,-0.724192
1630679468568,-0.854549,0.328607,-0.610976
1630679468577,-0.759145,0.311466,-0.516914
1630679468587,-0.671732,0.307684,-0.458598
1630679468596,-0.587674,0.270047,-0.422913
1630679468606,-0.495259,0.21185299999999999,-0.37624799999999997
1630679468616,-0.405711,0.150792,-0.312625
1630679468625,-0.327448,0.102358,-0.257847
1630679468635,-0.257786,0.077348,-0.204838
1630679468644,-0.190076,0.053985,-0.15481799999999998
1630679468654,-0.130418,0.039772,-0.090036
1630679468664,-0.077775,0.042151,-0.025681
1630679468673,-0.04819,0.049776,0.024399999999999998
1630679468683,-0.033367,0.058316,0.045566999999999996
1630679468692,-0.029523999999999998,0.067771,0.04636
1630679468702,-0.030683,0.06222,0.038796
1630679468712,-0.015738,0.037576,0.037027
1630679468721,0.0,0.008662,0.051362
1630679468731,-0.0060999999999999995,-0.016226,0.062586
1630679468740,-0.040992,-0.028121,0.068686
1630679468750,-0.114436,-0.009821,0.040992
1630679468760,-0.208986,0.028304,-0.020496
1630679468769,-0.359595,0.065819,-0.09589199999999999
1630679468779,-0.660874,0.225578,-0.211731
1630679468788,-1.028155,0.463356,-0.47878899999999996
1630679468798,-1.214693,0.577365,-0.85339
1630679468808,-1.111176,0.4087,-0.897676
1630679468817,-0.977708,0.196847,-0.643062
1630679468827,-0.983076,0.125233,-0.459635
1630679468836,-0.945622,0.109983,-0.394792
1630679468846,-1.06933,0.177449,-0.266021
1630679468856,-1.421849,0.282796,-0.37960299999999997
1630679468865,-1.77266,0.351665,-0.77104
1630679468875,-1.973472,0.36356,-1.023885
1630679468884,-1.998604,0.31890799999999997,-0.98088
1630679468894,-1.998604,0.241255,-0.918111
1630679468904,-1.986099,0.29548399999999997,-0.8556469999999999
1630679468913,-1.9424839999999999,0.324398,-0.820023
1630679468923,-1.88673,0.382592,-0.8048339999999999
1630679468932,-1.832562,0.414068,-0.785558
1630679468942,-1.772538,0.409249,-0.748836
1630679468952,-1.684332,0.37698,-0.716262
1630679468961,-1.563003,0.335683,-0.662582
1630679468971,-1.406294,0.281454,-0.580354
1630679468980,-1.247694,0.239669,-0.501298
1630679468990,-1.0891549999999999,0.22630999999999998,-0.43859
1630679469000,-0.96624,0.23973,-0.399001
1630679469009,-0.868945,0.237168,-0.373686
1630679469019,-0.764879,0.239974,-0.354837
1630679469028,-0.653127,0.213866,-0.362767
1630679469038,-0.524356,0.193187,-0.29731399999999997
1630679469048,-0.455731,0.132675,-0.276391
1630679469057,-0.333548,0.058682,-0.216855
1630679469067,-0.221796,0.006588,-0.14621699999999999
1630679469076,-0.130418,-0.050081,-0.07625
1630679469086,-0.059475,-0.094733,-0.020191
1630679469096,-0.03721,-0.085156,0.041541
1630679469105,-0.067954,-0.045933,0.050325
1630679469115,-0.084668,0.011224,0.041602
1630679469124,-0.011224,0.043188,0.039162
1630679469134,-0.13450499999999999,-0.104188,0.034038
1630679469144,-0.10858,-0.023667999999999998,-0.019886
1630679469153,-0.071309,-0.037332,0.008905999999999999
1630679469163,-0.106811,-0.029585,-0.018727
1630679469172,-0.20496,0.025254,-0.111203
1630679469182,-0.374357,0.14945,-0.232837
1630679469192,-0.594994,0.312869,-0.402356
1630679469201,-0.784338,0.474763,-0.61854
1630679469211,-0.84424,0.490745,-0.733769
1630679469220,-0.801113,0.386801,-0.712541
1630679469230,-0.788791,0.23863199999999998,-0.5940179999999999
1630679469240,-0.828502,0.219783,-0.524295
1630679469249,-0.944036,0.24204799999999999,-0.673989
1630679469259,-1.042063,0.305,-0.8017839999999999
1630679469268,-1.1442379999999999,0.444446,-0.808555
1630679469278,-1.4618039999999999,0.696925,-0.886818
1630679469288,-1.832867,0.898896,-1.073051
1630679469297,-1.97335,0.917867,-1.137772
1630679469307,-1.998604,0.803675,-1.124169
1630679469316,-1.998604,0.77287,-1.131855
1630679469326,-1.961028,0.8239879999999999,-1.120021
1630679469336,-1.847446,0.811605,-1.024373
1630679469345,-1.730326,0.747921,-0.946476
1630679469355,-1.606801,0.674721,-0.88694
1630679469364,-1.444602,0.611403,-0.818803
1630679469374,-1.2689219999999999,0.5231359999999999,-0.745298
1630679469384,-1.091778,0.453291,-0.612013
1630679469393,-0.910547,0.392108,-0.503067
1630679469403,-0.760548,0.348676,-0.39131499999999997
1630679469412,-0.649894,0.280234,-0.29548399999999997
1630679469422,-0.5629689999999999,0.197884,-0.22661499999999998
1630679469432,-0.501115,0.135176,-0.174155
1630679469441,-0.443226,0.073749,-0.158356
1630679469451,-0.37685799999999997,0.009882,-0.161833
1630679469460,-0.286029,-0.031903,-0.160003
1630679469470,-0.194407,-0.073505,-0.138775
1630679469480,-0.101992,-0.094428,-0.101382
1630679469489,-0.056303,-0.086742,-0.050325
1630679469499,-0.029158,-0.052948,-0.06893
1630679469508,-0.017263,0.008052,-0.085034
1630679469518,-0.020007999999999998,0.065636,-0.069662
1630679469528,0.001647,0.07063799999999999,-0.043493
1630679469537,-0.008173999999999999,0.027267,-0.050386
1630679469547,-0.007625,-0.0075639999999999995,-0.044286
1630679469556,-0.0064659999999999995,-0.016287,-0.019337
1630679469566,-0.060573,-0.096624,-0.000488
1630679469576,-0.146949,-0.122122,-0.01891
1630679469585,-0.27175499999999997,-0.018178,-0.051179
1630679469595,-0.523624,0.148779,-0.099552
1630679469604,-0.80825,0.446703,-0.234179
1630679469614,-1.0769549999999999,0.697718,-0.549183
1630679469624,-1.051274,0.630618,-0.7327319999999999
1630679469633,-1.034499,0.30475599999999997,-0.65392
1630679469643,-0.98759,-0.043066,-0.46421
1630679469652,-0.999912,0.130052,-0.360083
1630679469662,-0.998265,0.213134,-0.2806
1630679469672,-1.151192,0.360571,-0.137372
1630679469681,-1.448384,0.540399,-0.198677
1630679469691,-1.857572,0.5885279999999999,-0.557662
1630679469700,-1.962126,0.6606299999999999,-0.695888
1630679469710,-1.998604,0.581269,-0.669902
1630679469720,-1.9841469999999999,0.559797,-0.543327
1630679469729,-1.9121059999999999,0.59841,-0.428037
1630679469739,-1.873371,0.661362,-0.377712
1630679469748,-1.870382,0.689666,-0.37624799999999997
1630679469758,-1.840431,0.666486,-0.38387299999999996
1630679469768,-1.7645469999999999,0.63318,-0.372649
1630679469777,-1.65981,0.580049,-0.359168
1630679469787,-1.517314,0.532347,-0.301279
1630679469796,-1.326323,0.483608,-0.249246
1630679469806,-1.160952,0.453413,-0.213561
1630679469816,-1.049383,0.410042,-0.223809
1630679469825,-0.924577,0.381555,-0.23094599999999998
1630679469835,-0.809226,0.35343399999999997,-0.21953899999999998
1630679469844,-0.6925939999999999,0.323422,-0.222833
1630679469854,-0.624335,0.282796,-0.202398
1630679469864,-0.473421,0.250344,-0.18788
1630679469873,-0.355508,0.151646,-0.132736
1630679469883,-0.246379,0.093696,-0.083509
1630679469892,-0.130662,0.045689,-0.028731
1630679469902,-0.081923,-0.030987999999999998,0.014213
1630679469912,-0.074054,-0.045628,0.025742
1630679469921,-0.063318,-0.058193999999999996,0.037576
1630679469931,-0.084546,-0.05734,0.04209
1630679469940,-0.14652199999999999,-0.025863999999999998,-0.018543999999999998
1630679469950,-0.129442,-0.025803,-0.037759
1630679469960,-0.101931,-0.051484,-0.038735
1630679469969,-0.148169,-0.10315099999999999,-0.09028
1630679469979,-0.15945399999999998,-0.059536,-0.108763
1630679469988,-0.278282,-0.041358,-0.15921
1630679469998,-0.51972,0.15298799999999999,-0.245342
1630679470008,-0.806847,0.46158699999999997,-0.369782
1630679470017,-0.955626,0.650809,-0.530578
1630679470027,-0.875167,0.723338,-0.621895
1630679470036,-0.961299,0.336598,-0.546621
1630679470046,-1.025471,0.138958,-0.594201
1630679470056,-0.7914749999999999,0.49233099999999996,-0.458049
1630679470065,-1.029985,0.508008,-0.501847
1630679470075,-1.231712,0.6387309999999999,-0.715957
1630679470084,-1.555988,0.793122,-0.752557
1630679470094,-1.786812,0.869494,-0.857111
1630679470104,-1.998604,0.8270379999999999,-0.9420229999999999
1630679470113,-1.982866,0.764025,-0.935435
1630679470123,-1.767536,0.823012,-0.684725
1630679470132,-1.719041,0.827404,-0.738039
1630679470142,-1.735267,0.909327,-0.649955
1630679470152,-1.672132,0.9000549999999999,-0.664839
1630679470161,-1.612779,0.876814,-0.672586
1630679470171,-1.4801039999999999,0.824171,-0.6405
1630679470180,-1.34505,0.731268,-0.615795
1630679470190,-1.208532,0.629154,-0.5635789999999999
1630679470200,-1.080676,0.5200859999999999,-0.503799
1630679470209,-0.952271,0.435662,-0.43371
1630679470219,-0.8361879999999999,0.365878,-0.360693
1630679470228,-0.715469,0.30933099999999997,-0.296338
1630679470238,-0.626043,0.223138,-0.250283
1630679470248,-0.542107,0.149389,-0.20660699999999999
1630679470257,-0.457012,0.079239,-0.161772
1630679470267,-0.38173799999999997,0.025986,-0.116449
1630679470276,-0.311832,-0.001464,-0.069052
1630679470286,-0.249856,-0.010003999999999999,-0.049958999999999996
1630679470296,-0.181292,-0.015127999999999999,-0.037271
1630679470305,-0.112667,-0.013054,-0.031476
1630679470315,-0.081374,-0.022814,-0.018056
1630679470324,-0.063989,0.007076,-0.005063
1630679470334,-0.000366,0.062464,0.024704999999999998
1630679470344,-0.142923,0.050691,-0.049898
1630679470353,-0.108519,0.027267,-0.113399
1630679470363,-0.028853,-0.024399999999999998,0.000244
1630679470372,0.016714,-0.012688,0.060451
1630679470382,-0.022509,-0.017019,0.135969
1630679470392,-0.176778,0.047397,0.093086
1630679470401,-0.410164,0.158112,0.037942
1630679470411,-0.612501,0.439261,-0.067954
1630679470420,-0.889685,0.75091,-0.17360599999999998
1630679470430,-1.358775,0.533506,-0.447862
1630679470440,-1.3130249999999999,0.37942,-0.788303
1630679470449,-0.92964,0.216367,-0.40760199999999996
1630679470459,-0.8377129999999999,0.17568,-0.123098
1630679470468,-0.8976149999999999,0.15207299999999999,-0.067039
1630679470478,-1.036634,0.173667,-0.092171
1630679470488,-1.342549,0.300059,-0.066307
1630679470497,-1.7507,0.530883,-0.340868
1630679470507,-1.998604,0.653554,-0.646417
1630679470516,-1.998604,0.647271,-0.629642
1630679470526,-1.998604,0.533445,-0.558272
1630679470536,-1.903139,0.6171369999999999,-0.421937
1630679470545,-1.870504,0.743224,-0.314638
1630679470555,-1.8750179999999999,0.752435,-0.26535
1630679470564,-1.799927,0.716506,-0.213805
1630679470574,-1.7283739999999999,0.649894,-0.183122
1630679470584,-1.621014,0.585051,-0.147498
1630679470593,-1.523719,0.507459,-0.161223
1630679470603,-1.36274,0.448228,-0.151768
1630679470612,-1.24562,0.372344,-0.167384
1630679470622,-1.0821399999999999,0.333426,-0.155062
1630679470632,-0.962397,0.319335,-0.137555
1630679470641,-0.8866959999999999,0.30317,-0.151707
1630679470651,-0.771833,0.289262,-0.14884
1630679470660,-0.702598,0.256444,-0.172325
1630679470670,-0.630069,0.251259,-0.181292
1630679470680,-0.587552,0.149694,-0.211792
1630679470689,-0.438041,0.104554,-0.139385
1630679470699,-0.310795,-0.019337,-0.23338599999999998
1630679470708,-0.1525,0.063684,-0.07076
1630679470718,0.00061,0.089304,-0.030987999999999998
1630679470728,0.144692,-0.008296,0.096868
1630679470737,-0.107116,-0.06344,0.054229
1630679470747,-0.15823399999999999,-0.036478,-0.042517
1630679470756,-0.091805,-0.05551,-0.041784999999999996
1630679470766,-0.090707,-0.068869,-0.055388
1630679470776,-0.106811,-0.072468,-0.052094
1630679470785,-0.14701,-0.034343,-0.070089
1630679470795,-0.260775,-0.006222,-0.129625
1630679470804,-0.465979,0.159393,-0.20923
1630679470814,-0.724558,0.510936,-0.350323
1630679470824,-0.860344,0.76677,-0.53497
1630679470833,-0.8857809999999999,0.836554,-0.675819
1630679470843,-1.0249219999999999,0.48653599999999997,-0.604998
1630679470852,-0.8596119999999999,0.26596,-0.529846
1630679470862,-0.9699,0.342698,-0.39070499999999997
1630679470872,-1.100196,0.329156,-0.531981
1630679470881,-1.107333,0.453352,-0.410103
1630679470891,-1.395558,0.602802,-0.361425
1630679470900,-1.902224,0.667401,-0.5699839999999999
1630679470910,-1.998604,0.819169,-0.631228
1630679470920,-1.998604,0.724863,-0.7312069999999999
1630679470929,-1.9345539999999999,0.795379,-0.603534
1630679470939,-1.8275599999999999,0.866993,-0.5371049999999999
1630679470948,-1.83427,0.8988349999999999,-0.479582
1630679470958,-1.8028549999999999,0.878278,-0.500139
1630679470968,-1.72569,0.863333,-0.488488
1630679470977,-1.620892,0.834175,-0.495137
1630679470987,-1.466562,0.76982,-0.48562099999999997
1630679470996,-1.297897,0.67832,-0.479521
1630679471006,-1.112701,0.581696,-0.415166
1630679471016,-0.953735,0.502335,-0.33916
1630679471025,-0.842288,0.446337,-0.288774
1630679471035,-0.7342569999999999,0.416752,-0.232105
1630679471044,-0.6107319999999999,0.36697599999999997,-0.205875
1630679471054,-0.537593,0.270413,-0.164944
1630679471064,-0.457134,0.174521,-0.154452
1630679471073,-0.392047,0.114741,-0.093696
1630679471083,-0.312564,0.07137,-0.066307
1630679471092,-0.2928,0.038918,-0.093879
1630679471102,-0.24278,0.07942199999999999,-0.07076
1630679471112,-0.185501,0.039345,-0.098088
1630679471121,-0.133224,0.014518,-0.096319
1630679471131,-0.167689,-0.020252,-0.073322
1630679471140,-0.038918,0.039345,0.054839
1630679471150,-0.079544,0.048739,0.035685
1630679471160,0.05978,0.07991,-0.0077469999999999995
1630679471169,0.086071,0.056669,0.036356
1630679471179,-0.010919,-0.056974,0.009699
1630679471188,6.1e-05,-0.056608,0.048251
1630679471198,-0.050142,-0.051422999999999996,0.074603
1630679471208,-0.149999,0.055265999999999996,0.07503
1630679471217,-0.332511,0.129076,0.031598
1630679471227,-0.550098,0.470798,-0.014518
1630679471236,-0.762927,1.0004,-0.127795
1630679471246,-1.137284,0.804102,-0.234911
1630679471256,-1.410747,0.428464,-0.8121539999999999
1630679471265,-0.966789,0.46677199999999996,-0.531676
1630679471275,-0.93696,0.314699,-0.206363
1630679471284,-0.833931,0.319701,-0.024339
1630679471294,-0.918111,0.330254,0.157319
1630679471304,-1.178459,0.449387,0.234484
1630679471313,-1.635654,0.539728,-0.055754
1630679471323,-1.9376039999999999,0.749202,-0.351299
1630679471332,-1.998604,0.750422,-0.571875
1630679471342,-1.998604,0.7333419999999999,-0.544852
1630679471352,-1.93004,0.838201,-0.340014
1630679471361,-1.822802,0.867786,-0.135298
1630679471371,-1.803282,0.834785,-0.099308
1630679471380,-1.739964,0.81191,-0.010735999999999999
1630679471390,-1.6957389999999999,0.715164,0.067527
1630679471400,-1.678598,0.637694,0.027694
1630679471409,-1.6297979999999999,0.509289,-0.050813
1630679471419,-1.436245,0.470249,-0.025376
1630679471428,-1.233176,0.41236,-0.027632999999999998
1630679471438,-1.082872,0.368257,-0.026779
1630679471448,-0.967704,0.364414,0.04453
1630679471457,-0.8556469999999999,0.353556,-0.059109
1630679471467,-0.8075789999999999,0.354227,-0.031476
1630679471476,-0.6813089999999999,0.379725,-0.033611
1630679471486,-0.7610359999999999,0.285968,-0.163724
1630679471496,-0.598837,0.201117,-0.102785
1630679471505,-0.331108,0.18483,0.009211
1630679471515,-0.286456,0.126453,-0.164456
1630679471524,-0.144692,0.07387099999999999,-0.143045
1630679471534,0.049532,-0.067466,0.062342
1630679471544,-0.049776,-0.033916,0.138287
1630679471553,-0.125599,0.063074,0.085705
1630679471563,-0.085949,-0.012322,0.030317
1630679471572,-0.10467599999999999,-0.00549,0.015372
1630679471582,-0.09790499999999999,0.052948,-0.060939
1630679471592,-0.09881999999999999,0.081557,-0.117913
1630679471601,-0.131943,0.175192,-0.174643
1630679471611,-0.220271,0.317749,-0.181658
1630679471620,-0.393694,0.568581,-0.190808
1630679471630,-0.50752,0.855159,-0.275415
1630679471640,-0.503006,1.020225,-0.42462099999999997
1630679471649,-0.568398,0.828746,-0.444812
1630679471659,-0.638609,0.6198819999999999,-0.349408
1630679471668,-0.893711,0.555893,-0.440664
1630679471678,-0.943731,0.600362,-0.610793
1630679471688,-0.894931,0.6858839999999999,-0.335622
1630679471697,-1.098732,0.699853,-0.340685
1630679471707,-1.2860019999999999,0.8617469999999999,-0.312198
1630679471716,-1.596065,1.019432,-0.272609
1630679471726,-1.860195,1.150399,-0.32134799999999997
1630679471736,-1.914729,1.124596,-0.5851729999999999
1630679471745,-1.771501,1.2792919999999999,-0.329278
1630679471755,-1.820179,1.216828,-0.381494
1630679471764,-1.654869,1.257515,-0.287676
1630679471774,-1.568798,1.153937,-0.285785
1630679471784,-1.495903,1.107638,-0.27114499999999997
1630679471793,-1.322358,1.056154,-0.241926
1630679471803,-1.199382,0.971608,-0.232288
1630679471812,-1.036695,0.86925,-0.212951
1630679471822,-0.8985299999999999,0.749934,-0.174765
1630679471832,-0.781959,0.643184,-0.162626
1630679471841,-0.668926,0.574315,-0.118462
1630679471851,-0.590602,0.520025,-0.094184
1630679471860,-0.533018,0.460794,-0.106262
1630679471870,-0.471286,0.381372,-0.105164
1630679471880,-0.414312,0.28609,-0.12834399999999999
1630679471889,-0.35892399999999997,0.210999,-0.097234
1630679471899,-0.29646,0.133834,-0.098759
1630679471908,-0.233447,0.072834,-0.062891
1630679471918,-0.131455,0.035685,-0.049227
1630679471928,-0.110166,0.021411,-0.07417599999999999
1630679471937,-0.053801999999999996,0.013542,-0.035685
1630679471947,0.010126,0.02257,0.008723
1630679471956,0.037881,0.015067,-0.009394
1630679471966,-0.019764,-0.022143,-0.063501
1630679471976,-0.050142,-0.103334,-0.14396
1630679471985,0.0025009999999999998,-0.099857,-0.105164
1630679471995,-0.121512,-0.101992,-0.179828
1630679472004,-0.156648,0.086864,-0.195871
1630679472014,-0.30012,0.389729,-0.253333
1630679472024,-0.260714,0.612318,-0.252662
1630679472033,-0.153354,0.636047,-0.229848
1630679472043,0.030439,0.42553599999999997,-0.161345
1630679472052,0.21459799999999998,0.149816,-0.02989
1630679472062,0.428708,-0.057401,0.100101
1630679472072,0.394853,-0.128588,0.068076
1630679472081,0.168665,0.06417199999999999,-0.138592
1630679472091,0.439261,0.6079869999999999,-0.14158099999999998
1630679472100,0.522709,1.018395,-0.054960999999999996
1630679472110,0.266753,1.073966,-0.114558
1630679472120,0.396866,1.0854949999999999,-0.189222
1630679472129,0.359778,0.913048,-0.351665
1630679472139,0.525515,0.598166,-0.28499199999999997
1630679472148,0.091927,0.071187,-0.131455
1630679472158,-0.30872099999999997,-0.26870499999999997,0.12956399999999998
1630679472168,-0.235948,0.216733,0.421266
1630679472177,-0.267607,1.465586,0.659654
1630679472187,-0.086071,1.998604,0.73139
1630679472196,1.6939089999999999,1.998604,-0.078141
1630679472206,1.998604,1.998604,-1.998604
1630679472216,1.998604,0.673196,-1.998604
1630679472225,1.998604,-1.998604,0.750727
1630679472235,1.998604,1.998604,1.998604
1630679472244,1.998604,1.998604,-1.611742
1630679472254,1.578497,1.998604,0.342515
1630679472264,-0.101626,1.998604,1.998604
1630679472273,1.592588,1.998604,-1.75924
1630679472283,1.998604,1.010587,-1.998604
1630679472292,1.998604,-1.788581,-1.998604
1630679472302,0.850401,-1.998604,-0.399184
1630679472312,1.577704,-1.795779,-1.998604
1630679472321,0.295057,0.7564609999999999,-1.998604
1630679472331,-1.998604,1.544764,-1.622966
1630679472340,-0.509167,1.8068199999999999,-1.998604
1630679472350,1.998604,0.209596,-1.998604
1630679472360,1.998604,-1.068476,-1.786202
1630679472369,1.9206459999999999,-1.998604,-0.25742
1630679472379,-0.032818,-1.998604,-1.440393
1630679472388,0.154391,-0.217526,-1.998604
1630679472398,0.24357299999999998,1.693726,-0.595177
1630679472408,0.963983,1.694397,0.309758
1630679472417,1.996591,1.522804,0.0046359999999999995
1630679472427,1.998604,1.998604,-0.149206
1630679472436,0.023363,-1.998604,-1.998604
1630679472446,1.998604,-1.998604,-0.543022
1630679472456,0.546621,-1.998604,-1.191452
1630679472465,0.426817,-0.8051389999999999,-1.998604
1630679472475,1.998604,1.269288,-0.840519
1630679472484,-0.19519999999999998,1.517131,0.247782
1630679472494,-0.144082,0.975451,0.316346
1630679472504,0.574559,0.011224,-0.187941
1630679472513,0.506178,-1.743075,-0.047702
1630679472523,1.998604,-1.82939,-0.081496
1630679472532,1.998604,0.093818,-1.258308
1630679472542,1.998604,1.010038,-1.998604
1630679472552,-0.09143899999999999,1.086349,-1.998604
1630679472561,0.944707,1.998604,-0.57035
1630679472571,1.3769529999999999,1.998604,-0.109983
1630679472580,-0.325069,0.895602,-1.107272
1630679472590,1.998604,1.16144,-0.7920849999999999
1630679472600,1.998604,0.109068,0.394243
1630679472609,1.998604,-1.998604,1.223538
1630679472619,1.998604,-1.671217,1.21268
1630679472628,1.998604,1.351821,0.859124
1630679472638,1.998604,1.998604,0.905972
1630679472648,1.998604,0.45811,1.998604
1630679472657,1.998604,-1.998604,-1.998604
1630679472667,1.998604,-0.21368299999999998,-1.998604
1630679472676,0.8997499999999999,-1.998604,-0.099613
1630679472686,1.998604,-1.663653,-1.1920009999999999
1630679472696,1.328031,0.354532,-1.998604
1630679472705,0.388814,1.7581419999999999,-1.586183
1630679472715,1.809748,1.998604,0.494344
1630679472724,0.28975,1.998604,0.512583
1630679472734,-0.246684,1.097451,-0.511607
1630679472744,1.4271559999999999,0.783911,-1.486448
1630679472753,0.675392,-0.8357,-1.680184
1630679472763,0.318054,-1.998604,-0.6840539999999999
1630679472772,1.579351,-1.771501,-0.015127999999999999
1630679472782,1.8922809999999999,-0.596214,-1.152168
1630679472792,0.407236,0.573461,-1.623332
1630679472801,-0.8647969999999999,1.318271,-0.7090029999999999
1630679472811,0.926956,1.746674,0.155733
1630679472820,1.37311,1.141981,-0.604815
1630679472830,-0.22691999999999998,-0.548817,-1.333399
1630679472840,0.07808,-1.234213,-0.857721
1630679472849,0.030378,-1.485777,-0.44029799999999997
1630679472859,0.5398499999999999,-0.885354,-0.524722
1630679472868,1.336937,0.46116,-0.32269
1630679472878,0.750056,1.091168,-0.021716
1630679472888,0.274134,1.147471,0.091866
1630679472897,0.819352,0.83997,-0.081374
1630679472907,0.8145939999999999,0.269437,-0.228384
1630679472916,0.739564,-0.655933,-0.061305
1630679472926,1.01382,-0.693692,0.29670399999999997
1630679472936,0.483364,-0.489769,0.20374
1630679472945,0.7899499999999999,0.025803,-0.025742
1630679472955,0.793,0.61671,-0.210206
1630679472964,0.376919,1.006439,-0.279441
1630679472974,0.764452,1.371402,-0.132797
1630679472984,1.659993,1.371036,0.065026
1630679472993,1.998604,0.8766309999999999,0.588284
1630679473003,1.998604,0.300852,1.579107
1630679473012,1.998604,0.143289,1.998604
1630679473022,1.998604,-0.862601,1.998604
1630679473032,1.998604,0.18178,-1.998604
1630679473041,-0.273463,1.998604,-1.998604
1630679473051,0.05978,1.998604,0.936045
1630679473060,1.998604,1.998604,0.9225639999999999
1630679473070,-0.478362,-0.294081,0.081862
1630679473080,1.998604,1.998604,-0.897127
1630679473089,-0.317627,-0.8097139999999999,-1.669204
1630679473099,1.998604,-1.652185,0.624823
1630679473108,1.260626,-0.575474,0.40729699999999996
1630679473118,0.704367,-0.113582,0.07686
1630679473128,0.814655,-0.043248999999999996,-0.112179
1630679473137,-0.012139,-0.026718,-0.267668
1630679473147,-0.126819,0.19580999999999998,-0.29463
1630679473156,0.128283,0.234423,-0.35929
1630679473166,-0.398696,-0.161101,-0.64477
1630679473176,-1.005219,-0.24790399999999999,-0.70089
1630679473185,-0.087352,0.1037,-0.44029799999999997
1630679473195,0.037759,0.28346699999999997,-0.22204
1630679473204,0.013908,0.20904699999999998,-0.25071
1630679473214,0.004209,-0.09881999999999999,-0.24949
1630679473224,0.659898,-0.286395,-0.014395999999999999
1630679473233,0.396988,-0.656543,0.23668
1630679473243,0.513315,-0.79971,0.396988
1630679473252,0.18788,-0.815021,0.361547
1630679473262,0.192943,-0.650016,0.294203
1630679473272,0.290116,-0.328302,0.238144
1630679473281,0.391254,0.052643,0.201544
1630679473291,0.6898489999999999,0.391681,0.136518
1630679473300,0.413702,0.486414,-0.057034999999999995
1630679473310,0.374662,0.439871,-0.234545
1630679473320,0.641964,0.409737,-0.271084
1630679473329,0.896639,0.070882,-0.12261
1630679473339,1.450458,-0.353617,0.20288599999999998
1630679473348,1.707451,-0.544364,0.385398
1630679473358,1.822802,-0.433161,0.246989
1630679473368,1.998604,0.326289,0.067344
1630679473377,1.998604,1.100928,0.352458
1630679473387,1.998604,1.46156,0.9231739999999999
1630679473396,1.998604,1.572092,1.296738
1630679473406,1.998604,1.755153,1.1691259999999999
1630679473416,1.998604,1.83732,0.49672299999999997
1630679473425,1.998604,-1.998604,-1.998604
1630679473435,1.998604,-0.854488,-1.998604
1630679473444,-1.998604,1.998604,-0.029402
1630679473454,1.998604,-0.162626,0.459208
1630679473464,1.998604,1.206458,0.523624
1630679473473,1.974814,-1.885815,0.416203
1630679473483,1.998604,-1.879044,0.941901
1630679473492,-1.144482,1.321748,-0.561505
1630679473502,-1.998604,-0.501176,-0.501542
1630679473512,0.322324,-0.641232,0.30414599999999997
1630679473521,-0.465735,0.214964,0.048922
1630679473531,0.44773999999999997,-0.331047,0.240645
1630679473540,0.749324,0.395524,-0.326594
1630679473550,1.998604,1.998604,-1.998604
1630679473560,0.5712039999999999,0.461221,0.279685
1630679473569,0.313235,1.637606,0.68808
1630679473579,-1.1308179999999999,-0.552416,0.955077
1630679473588,-0.177998,-0.723643,1.310036
1630679473598,-0.311832,1.9339439999999999,0.985638
1630679473608,1.135759,1.895392,0.729621
1630679473617,1.998604,1.998604,-1.998604
1630679473627,1.998604,1.36518,-1.998604
1630679473636,1.208471,-1.998604,-1.998604
1630679473646,1.841529,-1.998604,-0.466101
1630679473656,1.398669,-1.998604,-1.025288
1630679473665,1.536163,-1.50426,-1.998604
1630679473675,-0.040015999999999996,1.339682,-1.998604
1630679473684,1.537505,1.998604,-0.339648
1630679473694,1.998604,-0.69906,-0.530273
1630679473704,1.998604,-0.594689,-0.563762
1630679473713,0.323605,0.49294099999999996,-0.638975
1630679473723,1.998604,0.096014,-0.44090799999999997
1630679473732,1.998604,-1.213229,1.896368
1630679473742,1.998604,-1.998604,1.998604
1630679473752,1.962431,-1.998604,-1.998604
1630679473761,1.318027,-1.998604,-1.998604
1630679473771,-0.014395999999999999,-0.7391369999999999,1.998604
1630679473780,0.026657,-1.998604,1.069391
1630679473790,0.411628,-1.998604,-1.229272
1630679473800,1.998604,-1.9623089999999999,-0.066551
1630679473809,-0.259677,0.096136,-0.086925
1630679473819,-0.202764,-1.662372,0.738771
1630679473828,-0.051667,-1.998604,-1.998604
1630679473838,1.3848829999999999,-0.951234,-0.518317
1630679473848,1.154608,-0.538752,-0.47970399999999996
1630679473857,1.322602,-0.411201,-0.403698
1630679473867,1.118923,-0.24973399999999998,-0.151829
1630679473876,1.194075,-0.222955,0.021899
1630679473886,0.749202,-0.015982,0.271694
1630679473896,1.882765,0.265594,0.487024
1630679473905,1.11874,-1.485106,-1.119777
1630679473915,-0.44182299999999997,-0.9508679999999999,-0.134261
1630679473924,-0.477447,0.5734,-0.081435
1630679473934,-0.408578,0.874557,-0.607377
1630679473944,0.7324269999999999,1.218597,0.25681
1630679473953,0.891088,-0.232288,-0.136823
1630679473963,0.417606,0.40668699999999997,-1.022543
1630679473972,0.506056,-0.025436999999999998,-0.499834
1630679473982,0.09272,-0.279197,0.524661
1630679473992,0.296582,0.066978,-0.19580999999999998
1630679474001,0.173728,0.055754,0.20843699999999998
1630679474011,0.283955,-0.083692,0.23155599999999998
1630679474020,0.422913,-0.070211,0.67466
1630679474030,0.268827,-0.08527799999999999,0.9423279999999999
1630679474040,0.014701,0.284565,1.476932
1630679474049,-0.255956,-0.212707,1.998604
1630679474059,-0.476227,0.048312,1.800842
1630679474068,-0.32208,0.379176,1.639619
1630679474078,-0.887855,-1.507066,1.792851
1630679474088,-0.20380099999999998,0.147193,1.926075
1630679474097,-0.227286,0.077958,1.4761389999999999
1630679474107,-0.40687,0.430904,1.412272
1630679474116,-0.435601,0.569313,1.527196
1630679474126,-0.550647,0.712297,1.576972
1630679474136,-0.770491,0.899994,1.53415
1630679474145,-0.780556,0.9669719999999999,1.48962
1630679474155,-0.647698,0.849364,1.563613
1630679474164,-0.5672389999999999,0.898957,1.535004
1630679474174,-0.458049,0.79849,1.386652
1630679474184,-0.5663239999999999,0.8252079999999999,1.234091
1630679474193,-0.555222,0.68808,1.14253
1630679474203,-0.490013,0.539667,1.058228
1630679474212,-0.389241,0.325252,0.961421
1630679474222,-0.366122,0.227103,0.7549359999999999
1630679474232,-0.412238,0.259494,0.451522
1630679474241,-0.40016,0.278953,0.37881
1630679474251,-0.359473,0.37533299999999997,0.172264
1630679474260,-0.32147,0.458293,0.03599
1630679474270,-0.167323,0.508862,-0.010553
1630679474280,-0.285724,0.514108,-0.10406599999999999
1630679474289,-0.188002,0.599081,-0.164883
1630679474299,-0.126331,0.541741,-0.31354
1630679474308,0.10309,0.45109499999999997,-0.227957
1630679474318,0.134993,0.242109,-0.174704
1630679474328,0.104798,0.096563,-0.096868
1630679474337,0.094245,0.010858,-0.096929
1630679474347,0.071492,0.057767,-0.086681
1630679474356,0.009271999999999999,0.157136,-0.10022299999999999
1630679474366,-0.072529,0.284565,-0.143777
1630679474376,-0.127673,0.327143,-0.135664
1630679474385,-0.19032,0.325191,-0.034343
1630679474395,-0.28914,0.353251,0.07618899999999999
1630679474404,-0.351238,0.41199399999999997,0.201544
1630679474414,-0.516609,0.52643,0.288408
1630679474424,-0.779763,0.67405,0.280478
1630679474433,-1.034865,0.833016,0.247355
1630679474443,-1.160586,0.831125,0.128893
1630679474452,-1.301252,0.698755,-0.012627
1630679474462,-1.499258,0.772748,-0.047030999999999996
1630679474472,-1.552206,0.7537159999999999,-0.019764
1630679474481,-1.448628,0.683688,0.093452
1630679474491,-1.39812,0.85522,0.200934
1630679474500,-1.516399,1.006866,0.190015
1630679474510,-1.669875,1.0282769999999999,0.15006
1630679474520,-1.74338,1.015894,0.10052799999999999
1630679474529,-1.832013,0.9219539999999999,0.036478
1630679474539,-1.9388239999999999,0.724741,0.14219099999999998
1630679474548,-1.931687,0.645258,0.29768
1630679474558,-1.685369,0.6411709999999999,0.435174
1630679474568,-1.596492,0.5848679999999999,0.554307
1630679474577,-1.462536,0.617015,0.546987
1630679474587,-1.284965,0.568581,0.419558
1630679474596,-1.2786819999999999,0.424682,0.278709
1630679474606,-1.136979,0.34629699999999997,0.146156
1630679474616,-1.055056,0.21581799999999998,0.088694
1630679474625,-1.057557,0.089609,-0.112911
1630679474635,-1.054934,-0.18379299999999998,-0.362828
1630679474644,-1.072807,-0.543022,-0.148291
1630679474654,-0.685945,-0.330376,-0.089182
1630679474664,-0.770735,-0.336049,-0.241987
1630679474673,-0.372527,0.116266,-0.41961899999999996
1630679474683,-0.443409,-0.259067,0.235216
1630679474692,-0.187392,0.171715,0.221613
1630679474702,-0.035318999999999996,0.142069,0.111325
1630679474712,-0.003111,0.080947,0.08601
1630679474721,0.11041,0.159271,0.071614
1630679474731,0.126819,0.12261,0.064538
1630679474740,0.066856,0.018727,0.045994
1630679474750,-0.11901099999999999,-0.094245,0.00122
1630679474760,-0.119133,-0.057583999999999996,-0.148718
1630679474769,-0.17824199999999998,-0.00915,-0.110959
1630679474779,-0.18781899999999999,0.115656,0.084363
1630679474788,-0.178913,0.139263,0.302682
1630679474798,-0.298046,-0.034343,0.397171
1630679474808,-0.379664,-0.032208,0.551684
1630679474817,-0.36905,-0.146156,0.619699
1630679474827,-0.422303,-0.105896,0.501115
1630679474836,-1.039745,-0.358436,0.060878
1630679474846,-1.306437,-0.48897599999999997,-0.168726
1630679474856,-1.517314,-0.615734,-0.339465
1630679474865,-1.7435019999999999,-0.8103239999999999,-0.361547
1630679474875,-1.885632,-0.911584,-0.323544
1630679474884,-1.857267,-0.86864,-0.18056
1630679474894,-1.88917,-0.772382,0.010248
1630679474904,-1.913692,-0.797514,0.180682
1630679474913,-1.895148,-0.801296,0.300181
1630679474923,-1.899784,-0.902922,0.23460599999999998
1630679474932,-1.737036,-1.14863,0.058498999999999995
1630679474942,-1.415627,-1.602226,-0.056303
1630679474952,-1.225307,-1.9206459999999999,-0.141032
1630679474961,-1.029375,-1.806088,-0.201422
1630679474971,-0.795928,-1.528355,-0.319945
1630679474980,-0.8553419999999999,-1.461865,-0.43798
1630679474990,-0.710162,-1.193099,-0.500261
1630679475000,-0.584624,-0.94489,-0.540277
1630679475009,-0.625189,-0.857538,-0.785192
1630679475019,-0.587491,-0.686311,-0.881999
1630679475028,-0.455182,-0.561505,-0.873215
1630679475038,-0.38978999999999997,-0.337025,-0.8550369999999999
1630679475048,-0.269498,-0.197701,-0.729804
1630679475057,-0.338794,0.024339,-0.569252
1630679475067,-0.425048,0.21228,-0.41175
1630679475076,-0.383934,0.228262,-0.24095
1630679475086,-0.38948499999999997,0.312808,-0.118645
1630679475096,-0.31354,0.350445,-0.048556
1630679475105,-0.258945,0.362096,-0.062647
1630679475115,-0.207095,0.30902599999999997,-0.10467599999999999
1630679475124,-0.002074,0.192028,-0.063379
1630679475134,0.10858,0.0793,-0.021228
1630679475144,0.30317,-0.046604,0.043737
1630679475153,0.167262,0.07942199999999999,0.054473
1630679475163,0.127246,-0.119499,0.130357
1630679475172,0.163602,-0.19276,0.125416
1630679475182,-0.099796,-0.053741,-0.045018
1630679475192,-0.217404,-0.080581,-0.209474
1630679475201,-0.437919,-0.060329,-0.367952
1630679475211,-0.55144,-0.185806,-0.530883
1630679475220,-0.596092,-0.224541,-0.771467
1630679475230,-0.772565,-0.035868,-1.196088
1630679475240,-0.668072,0.019764,-1.3542
1630679475249,-0.595909,0.016958,-1.382687
1630679475259,-0.721203,-0.120048,-1.347734
1630679475268,-0.840641,-0.303902,-1.316868
1630679475278,-0.939522,-0.376431,-1.148508
1630679475288,-1.1363079999999999,-0.460794,-1.001132
1630679475297,-1.383114,-0.41473899999999997,-1.016626
1630679475307,-1.545008,-0.266448,-1.0459669999999999
1630679475316,-1.565138,-0.217953,-1.040965
1630679475326,-1.490108,-0.219783,-1.048712
1630679475336,-1.417762,-0.209718,-1.138626
1630679475345,-1.338401,-0.389302,-1.24989
1630679475355,-1.212619,-0.601155,-1.29198
1630679475364,-1.107882,-0.508496,-1.250866
1630679475374,-1.0246169999999999,-0.337879,-1.161867
1630679475384,-0.979294,-0.101687,-1.064572
1630679475393,-0.96746,0.064111,-1.007598
1630679475403,-0.922015,0.13054,-1.015345
1630679475412,-0.915732,0.219905,-0.985699
1630679475422,-0.863455,0.209718,-0.912133
1630679475432,-0.843935,0.051484,-0.97905
1630679475441,-0.664778,0.07679899999999999,-1.421849
1630679475451,-0.328973,0.314577,-0.879254
1630679475460,-0.14158099999999998,0.649223,0.201178
1630679475470,-0.295057,0.421144,-0.004758
1630679475480,-0.277794,0.151341,-0.067161
1630679475489,-0.278221,-0.120475,-0.262056
1630679475499,0.000305,-0.293471,0.324398
1630679475508,0.06466,-0.163602,-0.183732
1630679475518,0.091012,-0.357582,-0.221003
1630679475528,0.036539,-0.542473,-0.359107
1630679475537,-0.110715,-0.380396,-0.495747
1630679475547,-0.079788,-0.174399,-0.376736
1630679475556,-0.071492,0.097234,-0.338855
1630679475566,-0.138897,0.286944,-0.398147
1630679475576,-0.155733,0.253211,-0.409127
1630679475585,-0.215147,0.181902,-0.404613
1630679475595,-0.310124,0.15189,-0.381067
1630679475604,-0.371856,0.156648,-0.42675599999999997
1630679475614,-0.43249,0.243512,-0.404003
1630679475624,-0.42919599999999997,0.40668699999999997,-0.349713
1630679475633,-0.35587399999999997,0.6606299999999999,-0.33611
1630679475643,-0.545279,0.867359,-0.64782
1630679475652,-0.504836,1.237446,-0.776408
1630679475662,-0.626592,1.25599,-1.117398
1630679475672,-0.7370019999999999,1.298629,-1.312232
1630679475681,-0.865773,1.170773,-1.3867129999999999
1630679475691,-0.879498,1.002657,-1.2835619999999999
1630679475700,-0.9517829999999999,0.752862,-1.097085
1630679475710,-0.961726,0.657946,-0.964776
1630679475720,-0.980026,0.644343,-0.983076
1630679475729,-0.8882209999999999,0.768173,-0.9794769999999999
1630679475739,-0.891332,0.772199,-1.117764
1630679475748,-0.801296,0.914512,-1.105564
1630679475758,-0.764208,0.965996,-1.204872
1630679475768,-0.695095,1.056276,-1.163697
1630679475777,-0.664046,0.987468,-1.207678
1630679475787,-0.5940179999999999,0.933117,-1.140212
1630679475796,-0.553026,0.859429,-1.073234
1630679475806,-0.501054,0.6864939999999999,-0.9530029999999999
1630679475816,-0.445788,0.604449,-0.814716
1630679475825,-0.382165,0.602436,-0.670207
1630679475835,-0.353861,0.455914,-0.6600199999999999
1630679475844,-0.29609399999999997,0.313662,-0.668499
1630679475854,-0.219356,0.287615,-0.59475
1630679475864,-0.18605,0.206973,-0.5158159999999999
1630679475873,-0.191906,0.18117,-0.365024
1630679475883,-0.210023,0.171044,-0.281271
1630679475892,-0.212036,0.096746,-0.32134799999999997
1630679475902,-0.20923,0.086071,-0.285053
1630679475912,-0.198494,0.138958,-0.250283
1630679475921,-0.165432,0.12834399999999999,-0.215452
1630679475931,-0.146949,0.192272,-0.101565
1630679475940,-0.103822,0.224846,0.054168
1630679475950,-0.082533,0.014152,-0.019642
1630679475960,-0.117486,0.031537,-0.098759
1630679475969,-0.143045,-0.05002,-0.150426
1630679475979,-0.182634,-0.172203,-0.217465
1630679475988,-0.311161,0.0050019999999999995,-0.346419
1630679475998,-0.409005,0.239364,-0.539301
1630679476008,-0.561261,0.385032,-0.680638
1630679476017,-0.6832,0.487634,-0.821182
1630679476027,-0.74481,0.48617,-0.927932
1630679476036,-0.802333,0.390156,-0.940193
1630679476046,-0.840702,0.303292,-0.9219539999999999
1630679476056,-0.804773,0.181048,-0.968131
1630679476065,-0.829661,0.116266,-0.941169
1630679476075,-0.974658,0.260287,-0.9384239999999999
1630679476084,-1.1360029999999999,0.479826,-1.079578
1630679476094,-1.218475,0.509106,-1.1712609999999999
1630679476104,-1.169553,0.500139,-1.264103
1630679476113,-1.147776,0.48470599999999997,-1.392935
1630679476123,-1.103612,0.46909,-1.375855
1630679476132,-1.105503,0.46829699999999996,-1.335473
1630679476142,-1.100257,0.39466999999999997,-1.317173
1630679476152,-1.095743,0.376065,-1.297592
1630679476161,-1.11447,0.342576,-1.2759369999999999
1630679476171,-1.115934,0.355142,-1.233298
1630679476180,-1.065914,0.307379,-1.17486
1630679476190,-1.001193,0.265716,-1.101904
1630679476200,-0.94062,0.24156,-0.993934
1630679476209,-0.91927,0.153659,-0.871507
1630679476219,-0.77165,0.120475,-0.734684
1630679476228,-0.6411709999999999,0.111508,-0.692411
1630679476238,-0.612501,0.015738,-0.546438
1630679476248,-0.5179509999999999,-0.095465,-0.471042
1630679476257,-0.426817,-0.104005,-0.48251
1630679476267,-0.34233199999999997,-0.130052,-0.490928
1630679476276,-0.21777,-0.179218,-0.42401099999999997
1630679476286,-0.148901,-0.22783499999999998,-0.331901
1630679476296,-0.1037,-0.222406,-0.254797
1630679476305,-0.115961,-0.205143,-0.218258
1630679476315,-0.11163,-0.158966,-0.212585
1630679476324,-0.065697,-0.140422,-0.197213
1630679476334,-0.05734,-0.149816,-0.16994599999999999
1630679476344,-0.04087,-0.154574,-0.13663999999999998
1630679476353,-0.019703,-0.18934399999999998,-0.126087
1630679476363,-0.000366,-0.236436,-0.169458
1630679476372,-0.093391,-0.181231,-0.28975
1630679476382,-0.1769,-0.10992199999999999,-0.45139999999999997
1630679476392,-0.30872099999999997,-0.036173,-0.623237
1630679476401,-0.434259,0.094733,-0.8258179999999999
1630679476411,-0.402844,0.154086,-1.019188
1630679476420,-0.401685,0.097966,-1.098244
1630679476430,-0.44987499999999997,0.015311,-1.091229
1630679476440,-0.565165,-0.044835,-1.096292
1630679476449,-0.5912729999999999,-0.032025,-1.118252
1630679476459,-0.7151029999999999,-0.031659,-1.1752259999999999
1630679476468,-0.831491,-0.036905,-1.230553
1630679476478,-0.81069,-0.0051849999999999995,-1.269105
1630679476488,-0.859185,-0.028121,-1.358165
1630679476497,-0.742919,0.019642,-1.555866
1630679476507,-0.741028,0.079483,-1.656699
1630679476516,-0.8078839999999999,0.19276,-1.640656
1630679476526,-0.8522919999999999,0.32086,-1.564223
1630679476536,-0.9329339999999999,0.409737,-1.505358
1630679476545,-0.954284,0.44426299999999996,-1.41581
1630679476555,-0.944402,0.427427,-1.361276
1630679476564,-0.931958,0.41626399999999997,-1.2661769999999999
1630679476574,-0.933422,0.423218,-1.156255
1630679476584,-0.87718,0.426024,-1.093547
1630679476593,-0.823744,0.418643,-0.973194
1630679476603,-0.7589009999999999,0.384117,-0.856745
1630679476612,-0.6810039999999999,0.371673,-0.785924
1630679476622,-0.605852,0.351787,-0.744017
1630679476632,-0.565043,0.302072,-0.626592
1630679476641,-0.515633,0.256627,-0.541863
1630679476651,-0.425658,0.184647,-0.488854
1630679476660,-0.43602799999999997,0.11406999999999999,-0.348798
1630679476670,-0.386008,0.148291,-0.3233
1630679476680,-0.307135,0.115961,-0.23802199999999998
1630679476689,-0.290421,0.067832,-0.178669
1630679476699,-0.224846,0.112118,-0.164578
1630679476708,-0.222406,0.151585,-0.11406999999999999
1630679476718,-0.137372,0.116266,-0.077775
1630679476728,-0.067832,0.086254,-0.084729
1630679476737,-0.054168,0.073444,-0.106445
1630679476747,-0.042273,0.071858,-0.154391
1630679476756,-0.067954,-0.003294,-0.145729
1630679476766,-0.098088,-0.05978,-0.192882
1630679476776,-0.156221,-0.071675,-0.276635
1630679476785,-0.34526,0.012993,-0.386496
1630679476795,-0.566507,0.1708,-0.547658
1630679476804,-0.722911,0.316224,-0.707051
1630679476814,-0.8072739999999999,0.363133,-0.8282579999999999
1630679476824,-0.809348,0.28426,-0.884439
1630679476833,-0.821731,0.185501,-0.8532069999999999
1630679476843,-0.8252079999999999,0.09113399999999999,-0.80825
1630679476852,-0.820816,-0.0071979999999999995,-0.746274
1630679476862,-0.831674,-0.054229,-0.725534
1630679476872,-0.941962,-0.041784999999999996,-0.764513
1630679476881,-1.06872,0.047763,-0.890173
1630679476891,-1.155706,0.158661,-1.03334
1630679476900,-1.228967,0.207461,-1.18218
1630679476910,-1.229333,0.211121,-1.3121099999999999
1630679476920,-1.185169,0.229848,-1.397632
1630679476929,-1.170224,0.203679,-1.363106
1630679476939,-1.1448479999999999,0.214476,-1.258247
1630679476948,-1.151192,0.216306,-1.175653
1630679476958,-1.1366129999999999,0.21581799999999998,-1.159549
1630679476968,-1.106296,0.227347,-1.14802
1630679476977,-1.05103,0.22447999999999999,-1.116849
1630679476987,-0.989298,0.22204,-1.067622
1630679476996,-0.8985299999999999,0.208254,-1.007964
1630679477006,-0.796172,0.176534,-0.933666
1630679477016,-0.708515,0.151524,-0.8605269999999999
1630679477025,-0.64355,0.130662,-0.7835449999999999
1630679477035,-0.5857829999999999,0.113704,-0.723582
1630679477044,-0.510692,0.098454,-0.649345
1630679477054,-0.44469,0.090768,-0.555954
1630679477064,-0.37533299999999997,0.071126,-0.475251
1630679477073,-0.276086,0.023851,-0.405589
1630679477083,-0.176473,-0.051422999999999996,-0.31055099999999997
1630679477092,-0.051484,-0.112423,-0.31049
1630679477102,0.033367,-0.205082,-0.232288
1630679477112,0.045445,-0.205265,-0.197518
1630679477121,0.047458,-0.187941,-0.187148
1630679477131,0.025863999999999998,-0.170739,-0.19580999999999998
1630679477140,-0.0025009999999999998,-0.143838,-0.231678
1630679477150,-0.016409,-0.137128,-0.28041699999999997
1630679477160,-0.043432,-0.10675,-0.35587399999999997
1630679477169,-0.165066,0.0021349999999999997,-0.519354
1630679477179,-0.33183999999999997,0.132614,-0.717787
1630679477188,-0.414495,0.18544,-0.931165
1630679477198,-0.438285,0.13298,-1.085983
1630679477208,-0.478667,0.019459,-1.142286
1630679477217,-0.531127,-0.028731,-1.2211589999999999
1630679477227,-0.596702,-0.030317,-1.287771
1630679477236,-0.633668,-0.070272,-1.324066
1630679477246,-0.582062,-0.07911699999999999,-1.333643
1630679477256,-0.722789,-0.090402,-1.301435
1630679477265,-0.902007,-0.09333,-1.336022
1630679477275,-1.009062,-0.034648,-1.381955
1630679477284,-1.117947,0.049104999999999996,-1.46034
1630679477294,-1.170529,0.102724,-1.466806
1630679477304,-1.198406,0.146278,-1.470405
1630679477313,-1.246413,0.18178,-1.422154
1630679477323,-1.26026,0.229116,-1.347246
1630679477332,-1.216096,0.236741,-1.2844769999999999
1630679477342,-1.122644,0.223626,-1.172847
1630679477352,-1.03151,0.23729,-1.114836
1630679477361,-0.940559,0.210816,-1.031266
1630679477371,-0.781349,0.18226799999999999,-0.963739
1630679477380,-0.722057,0.146461,-0.904447
1630679477390,-0.6192719999999999,0.103029,-0.824964
1630679477400,-0.5377149999999999,0.046116,-0.7595109999999999
1630679477409,-0.483608,-0.007869,-0.652883
1630679477419,-0.463783,-0.064416,-0.528687
1630679477428,-0.428159,-0.112301,-0.417667
1630679477438,-0.38125,-0.14335,-0.31903
1630679477448,-0.302987,-0.143289,-0.30506099999999997
1630679477457,-0.235521,-0.117425,-0.272243
1630679477467,-0.18440299999999998,-0.085034,-0.204716
1630679477476,-0.149328,-0.046665,-0.147681
1630679477486,-0.133834,-0.040443,-0.086986
1630679477496,-0.13419999999999999,-0.023363,-0.047458
1630679477505,-0.123342,-0.029341,-0.056059
1630679477515,-0.121756,-0.066673,-0.026413
1630679477524,-0.105652,-0.111264,-0.026474
1630679477534,-0.121512,-0.147498,-0.050996
1630679477544,-0.158966,-0.155916,-0.099125
1630679477553,-0.230763,-0.13078399999999998,-0.161467
1630679477563,-0.382714,-0.027327999999999998,-0.284565
1630679477572,-0.565836,0.128527,-0.46067199999999997
1630679477582,-0.689056,0.273951,-0.6609349999999999
1630679477592,-0.749934,0.31537,-0.864004
1630679477601,-0.790316,0.240523,-0.972279
1630679477611,-0.7881199999999999,0.112789,-0.953552
1630679477620,-0.784948,0.019947,-0.906826
1630679477630,-0.774029,-0.070211,-0.911401
1630679477640,-0.821792,-0.11529,-0.965386
1630679477649,-0.996984,-0.009028,-1.026691
1630679477659,-1.173884,0.134383,-1.134966
1630679477668,-1.289174,0.291885,-1.312842
1630679477678,-1.36701,0.394121,-1.477481
1630679477688,-1.413492,0.380884,-1.566602
1630679477697,-1.391044,0.321714,-1.527745
1630679477707,-1.349564,0.273219,-1.34871
1630679477716,-1.3191249999999999,0.301096,-1.206214
1630679477726,-1.300886,0.299937,-1.133624
1630679477736,-1.269166,0.272304,-1.101477
1630679477745,-1.206763,0.249978,-1.089094
1630679477755,-1.103429,0.232593,-1.044198
1630679477764,-0.969168,0.199104,-1.003633
1630679477774,-0.829295,0.165859,-0.9516
1630679477784,-0.713395,0.14518,-0.8498519999999999
1630679477793,-0.579805,0.142862,-0.76799
1630679477803,-0.456219,0.08418,-0.683322
1630679477812,-0.395524,0.08052,-0.58011
1630679477822,-0.336232,0.082167,-0.481778
1630679477832,-0.277306,0.024522,-0.366183
1630679477841,-0.152561,-0.00122,-0.333487
1630679477851,-0.031964,-0.092964,-0.296033
1630679477860,0.04575,-0.155672,-0.23186099999999998
1630679477870,0.059352999999999996,-0.154452,-0.20105599999999998
1630679477880,0.029036,-0.142374,-0.175131
1630679477889,0.08790099999999999,-0.111813,-0.202398
1630679477899,0.088694,-0.084546,-0.241133
1630679477908,0.04392,-0.058316,-0.274988
1630679477918,0.032025,-0.055083,-0.35502
1630679477928,0.00244,0.022143,-0.444019
1630679477937,-0.119804,0.166774,-0.500505
1630679477947,-0.305488,0.33977,-0.6134769999999999
1630679477956,-0.425475,0.405406,-0.748897
1630679477966,-0.508252,0.42822,-0.8580869999999999
1630679477976,-0.568825,0.420412,-1.004609
1630679477985,-0.638975,0.423828,-1.063596
1630679477995,-0.7777499999999999,0.48434,-1.0912899999999999
1630679478004,-0.8313079999999999,0.510143,-1.103795
1630679478014,-0.77409,0.476776,-1.138992
1630679478024,-0.753167,0.437065,-1.178459
1630679478033,-0.823866,0.486963,-1.250439
1630679478043,-0.964532,0.59475,-1.351089
1630679478052,-1.124352,0.703696,-1.396595
1630679478062,-1.2229889999999999,0.755302,-1.388909
1630679478072,-1.279353,0.772931,-1.3592629999999999
1630679478081,-1.343525,0.781349,-1.293749
1630679478091,-1.315831,0.7111379999999999,-1.16266
1630679478100,-1.241411,0.633607,-1.067622
1630679478110,-1.172542,0.588894,-0.97112
1630679478120,-1.058472,0.537349,-0.920673
1630679478129,-0.947574,0.463966,-0.859551
1630679478139,-0.842715,0.37807799999999997,-0.793305
1630679478148,-0.742248,0.246745,-0.740784
1630679478158,-0.654408,0.12132899999999999,-0.686067
1630679478168,-0.582611,0.028609,-0.638792
1630679478177,-0.521977,-0.023424,-0.59475
1630679478187,-0.476532,-0.051911,-0.532286
1630679478196,-0.413153,-0.065514,-0.470676
1630679478206,-0.352702,-0.043005,-0.428403
1630679478216,-0.300242,-0.011467999999999999,-0.3599
1630679478225,-0.243085,0.030987999999999998,-0.308904
1630679478235,-0.181536,0.061488,-0.28102699999999997
1630679478244,-0.138348,0.065575,-0.242597
1630679478254,-0.094855,0.05185,-0.193858
1630679478264,-0.064599,0.043981,-0.137738
1630679478273,-0.063928,0.01647,-0.052948
1630679478283,-0.047030999999999996,-0.014395999999999999,-0.012078
1630679478292,-0.038125,-0.033306,0.005124
1630679478302,-0.033733,-0.056242,0.007503
1630679478312,-0.124379,-0.077226,-0.020252
1630679478321,-0.174582,-0.08356999999999999,-0.078751
1630679478331,-0.277184,-0.062403,-0.188185
1630679478340,-0.556991,0.089487,-0.344589
1630679478350,-0.784826,0.284565,-0.49288
1630679478360,-0.88145,0.374052,-0.67222
1630679478369,-0.966789,0.381189,-0.826916
1630679478379,-0.9813069999999999,0.27419499999999997,-0.844789
1630679478388,-0.9551379999999999,0.208254,-0.791902
1630679478398,-0.928603,0.136762,-0.747555
1630679478408,-1.017236,0.08881599999999999,-0.746274
1630679478417,-1.23464,0.111447,-0.8005639999999999
1630679478427,-1.426424,0.184525,-0.9201239999999999
1630679478436,-1.5759349999999999,0.275293,-1.061644
1630679478446,-1.650355,0.335012,-1.176019
1630679478456,-1.660969,0.319335,-1.231468
1630679478465,-1.634556,0.273402,-1.196698
1630679478475,-1.610217,0.27022999999999997,-1.0864099999999999
1630679478484,-1.584414,0.286151,-0.961665
1630679478494,-1.545923,0.279563,-0.901641
1630679478504,-1.5095669999999999,0.277733,-0.871263
1630679478513,-1.448384,0.255529,-0.839055
1630679478523,-1.355786,0.215452,-0.800015
1630679478532,-1.244766,0.176351,-0.7671359999999999
1630679478542,-1.112945,0.133224,-0.726815
1630679478552,-0.989115,0.121207,-0.700036
1630679478561,-0.884744,0.12315899999999999,-0.67161
1630679478571,-0.7786649999999999,0.127856,-0.630008
1630679478580,-0.656299,0.110471,-0.586149
1630679478590,-0.548207,0.085156,-0.510936
1630679478600,-0.44164,0.050081,-0.425902
1630679478609,-0.309758,-0.026474,-0.344894
1630679478619,-0.17946199999999998,-0.100162,-0.28560199999999997
1630679478628,-0.082289,-0.13969,-0.230702
1630679478638,-0.032390999999999996,-0.192211,-0.15067
1630679478648,0.00244,-0.171959,-0.128527
1630679478657,0.006039,-0.155611,-0.11809599999999999
1630679478667,-0.080825,-0.155489,-0.091683
1630679478676,0.036966,-0.110349,-0.063684
1630679478686,-0.023302,-0.10797,-0.087718
1630679478696,-0.028731,-0.122305,-0.10961699999999999
1630679478705,-0.063135,-0.149328,-0.136152
1630679478715,-0.10919,-0.137433,-0.172447
1630679478724,-0.168177,-0.090402,-0.24174299999999999
1630679478734,-0.337696,0.025071,-0.32574
1630679478744,-0.571082,0.23741199999999998,-0.458232
1630679478753,-0.74176,0.36966,-0.624152
1630679478763,-0.882609,0.421998,-0.796904
1630679478772,-1.001254,0.31890799999999997,-0.915671
1630679478782,-0.924272,0.320372,-0.9253089999999999
1630679478792,-0.964654,0.30689099999999997,-0.913719
1630679478801,-0.946964,0.309514,-0.898652
1630679478811,-1.004548,0.243939,-0.866932
1630679478820,-1.21268,0.266082,-0.910669
1630679478830,-1.329556,0.252052,-1.007598
1630679478840,-1.448994,0.2806,-1.115934
1630679478849,-1.4794939999999999,0.296582,-1.18035
1630679478859,-1.48413,0.28426,-1.206885
1630679478868,-1.49511,0.324032,-1.142774
1630679478878,-1.52988,0.390461,-1.057008
1630679478888,-1.532015,0.453352,-0.9831369999999999
1630679478897,-1.516033,0.459391,-0.910669
1630679478907,-1.443321,0.44121299999999997,-0.8495469999999999
1630679478916,-1.339316,0.420839,-0.770064
1630679478926,-1.233298,0.394487,-0.709735
1630679478936,-1.076406,0.352763,-0.682468
1630679478945,-0.907924,0.288835,-0.6378159999999999
1630679478955,-0.795989,0.218685,-0.582306
1630679478964,-0.674782,0.150426,-0.532347
1630679478974,-0.583404,0.089975,-0.470554
1630679478984,-0.49794299999999997,0.056181,-0.385581
1630679478993,-0.43163599999999996,0.023851,-0.320372
1630679479003,-0.393694,0.026108,-0.268949
1630679479012,-0.335622,0.031537,-0.20660699999999999
1630679479022,-0.242597,0.011101999999999999,-0.189588
1630679479032,-0.142069,0.001403,-0.226432
1630679479041,-0.100589,-0.0023179999999999997,-0.222467
1630679479051,-0.085827,-0.030134,-0.197823
1630679479060,-0.087474,-0.047153,-0.139812
1630679479070,-0.086986,-0.082167,-0.121085
1630679479080,-0.086681,-0.12456199999999999,-0.11809599999999999
1630679479089,-0.111264,-0.162809,-0.117852
1630679479099,-0.121146,-0.196786,-0.135542
1630679479108,-0.25742,-0.22600499999999998,-0.18934399999999998
1630679479118,-0.39967199999999997,-0.192699,-0.24296299999999998
1630679479128,-0.665327,-0.046238,-0.373076
1630679479137,-0.86803,0.151097,-0.5197809999999999
1630679479147,-1.024373,0.238571,-0.67588
1630679479156,-1.073417,0.170373,-0.7564
1630679479166,-1.0851899999999999,0.02745,-0.7622559999999999
1630679479176,-1.021384,-0.025863999999999998,-0.704611
1630679479185,-0.9958859999999999,-0.099308,-0.653554
1630679479195,-1.053958,-0.162382,-0.645502
1630679479204,-1.206946,-0.117974,-0.6645949999999999
1630679479214,-1.41459,-0.055205,-0.749019
1630679479224,-1.580754,-0.0046359999999999995,-0.837774
1630679479233,-1.647427,0.027023,-0.922625
1630679479243,-1.601799,0.017995,-0.998814
1630679479252,-1.594662,-0.013237,-0.989542
1630679479262,-1.554036,0.01769,-0.909754
1630679479272,-1.537993,0.08497299999999999,-0.851011
1630679479281,-1.53598,0.10065,-0.824476
1630679479291,-1.521889,0.096197,-0.809348
1630679479300,-1.474797,0.065331,-0.824842
1630679479310,-1.409832,0.050386,-0.817522
1630679479320,-1.326811,0.046726,-0.803431
1630679479329,-1.205421,0.040565,-0.781654
1630679479339,-1.0839699999999999,0.035318999999999996,-0.74969
1630679479348,-0.95953,0.036661,-0.702049
1630679479358,-0.840702,0.056791,-0.63623
1630679479368,-0.7382219999999999,0.048434,-0.553819
1630679479377,-0.622688,0.020313,-0.49715
1630679479387,-0.534665,0.013847,-0.42675599999999997
1630679479396,-0.430538,-0.010858,-0.369477
1630679479406,-0.319579,-0.057462,-0.335134
1630679479416,-0.24509799999999998,-0.134749,-0.290482
1630679479425,-0.108946,-0.168238,-0.246928
1630679479435,-0.04758,-0.199226,-0.239059
1630679479444,-0.040626,-0.18727,-0.23619199999999999
1630679479454,-0.033306,-0.141764,-0.221247
1630679479464,-0.040382,-0.109495,-0.221735
1630679479473,-0.02867,-0.108824,-0.210328
1630679479483,-0.02867,-0.12566,-0.195627
1630679479492,-0.02867,-0.147803,-0.19519999999999998
1630679479502,-0.030195,-0.159637,-0.224053
1630679479512,-0.00061,-0.113582,-0.27877
1630679479521,-0.159637,-0.077836,-0.38082299999999997
1630679479531,-0.324825,0.031964,-0.506361
1630679479540,-0.570472,0.165676,-0.6685599999999999
1630679479550,-0.693326,0.259372,-0.808128
1630679479560,-0.804712,0.266326,-0.916769
1630679479569,-0.882365,0.198738,-1.011075
1630679479579,-0.9231739999999999,0.106018,-1.014735
1630679479588,-0.976183,0.132858,-1.056154
1630679479598,-0.98576,0.113704,-1.040843
1630679479608,-1.035353,0.082533,-1.021689
1630679479617,-1.189012,0.068198,-1.040111
1630679479627,-1.316197,0.075823,-1.111542
1630679479636,-1.4070259999999999,0.11638799999999999,-1.211399
1630679479646,-1.472845,0.138287,-1.273253
1630679479656,-1.451495,0.173972,-1.238361
1630679479665,-1.43228,0.244366,-1.138199
1630679479675,-1.441735,0.30683,-1.028643
1630679479684,-1.464122,0.360205,-0.950807
1630679479694,-1.400865,0.322507,-0.903654
1630679479704,-1.308816,0.278221,-0.832772
1630679479713,-1.21695,0.259494,-0.769088
1630679479723,-1.11813,0.239669,-0.73444
1630679479732,-1.013393,0.224724,-0.686677
1630679479742,-0.901702,0.207583,-0.617686
1630679479752,-0.770369,0.130052,-0.537227
1630679479761,-0.669231,0.102724,-0.49855299999999997
1630679479771,-0.56303,0.049532,-0.450119
1630679479780,-0.488244,0.007686,-0.380396
1630679479790,-0.422669,-0.011833999999999999,-0.300059
1630679479800,-0.35861899999999997,-0.033062,-0.23973
1630679479809,-0.298351,-0.046726,-0.190381
1630679479819,-0.254858,-0.061121999999999996,-0.166103
1630679479828,-0.158051,-0.05063,-0.210755
1630679479838,-0.11284999999999999,-0.023058,-0.183854
1630679479848,-0.07063799999999999,-0.012688,-0.082594
1630679479857,-0.058377,-0.025986,-0.04819
1630679479867,-0.04575,-0.055327,-0.019154
1630679479876,-0.072529,-0.101199,0.010065
1630679479886,-0.117181,-0.143167,0.00671
1630679479896,-0.20679,-0.150487,-0.047335999999999996
1630679479905,-0.294508,-0.167323,-0.090951
1630679479915,-0.467748,-0.123891,-0.157563
1630679479924,-0.770064,0.046238,-0.301096
1630679479934,-1.006317,0.200629,-0.451461
1630679479944,-1.116605,0.22569999999999998,-0.542839
1630679479953,-1.139114,0.121268,-0.556442
1630679479963,-1.120692,0.008052,-0.552904
1630679479972,-1.151009,-0.067283,-0.575657
1630679479982,-1.191269,-0.157075,-0.594872
1630679479992,-1.2284789999999999,-0.172935,-0.580903
1630679480001,-1.395497,-0.17732699999999998,-0.600301
1630679480011,-1.5725799999999999,-0.15207299999999999,-0.725595
1630679480020,-1.724897,-0.008784,-0.9329339999999999
1630679480030,-1.7973649999999999,0.056974,-1.066097
1630679480040,-1.782176,0.025681,-1.126792
1630679480049,-1.706475,-0.0030499999999999998,-1.058899
1630679480059,-1.670607,0.049898,-0.963739
1630679480068,-1.6665809999999999,0.101626,-0.931287
1630679480078,-1.639009,0.074359,-0.911828
1630679480088,-1.583682,0.023729,-0.891271
1630679480097,-1.522255,-0.013481,-0.869433
1630679480107,-1.4195309999999999,-0.034038,-0.849791
1630679480116,-1.274473,-0.080215,-0.811422
1630679480126,-1.12118,-0.089182,-0.8005639999999999
1630679480136,-0.9113399999999999,-0.122915,-0.705709
1630679480145,-0.7415769999999999,-0.088999,-0.672647
1630679480155,-0.657946,-0.022692,-0.679113
1630679480164,-0.56364,-0.028426,-0.587857
1630679480174,-0.433954,-0.081923,-0.514657
1630679480184,-0.320006,-0.12486699999999999,-0.418765
1630679480193,-0.20105599999999998,-0.177815,-0.29768
1630679480203,-0.090585,-0.253333,-0.208803
1630679480212,-0.010431,-0.301462,-0.136274
1630679480222,0.037576,-0.30805,-0.145058
1630679480232,0.015311,-0.199714,-0.164822
1630679480241,-0.041479999999999996,-0.08234999999999999,-0.185196
1630679480251,-0.041358,-0.090158,-0.119133
1630679480260,-0.00366,-0.153415,-0.194468
1630679480270,0.021899,-0.105896,-0.135176
1630679480280,0.032390999999999996,-0.130113,-0.123342
1630679480289,0.079849,-0.182085,-0.16128399999999998
1630679480299,0.11773,-0.157624,-0.224053
1630679480308,0.057096,-0.144204,-0.226127
1630679480318,-0.054778,-0.122427,-0.313052
1630679480328,-0.256566,-0.0048189999999999995,-0.514657
1630679480337,-0.410042,0.098393,-0.793366
1630679480347,-0.426207,0.1098,-1.026813
1630679480356,-0.435174,0.209779,-1.197308
1630679480366,-0.371795,0.152256,-1.277706
1630679480376,-0.374723,0.103212,-1.314367
1630679480385,-0.410591,0.112362,-1.351028
1630679480395,-0.493612,0.121573,-1.386591
1630679480404,-0.589077,0.100589,-1.447896
1630679480414,-0.742431,0.110959,-1.618757
1630679480424,-0.896944,0.15189,-1.790106
1630679480433,-1.036756,0.203008,-1.974265
1630679480443,-1.078114,0.24143799999999999,-1.998604
1630679480452,-1.0909849999999999,0.236619,-1.998604
1630679480462,-1.133807,0.298168,-1.898442
1630679480472,-1.151924,0.292312,-1.768329
1630679480481,-1.151375,0.291336,-1.638704
1630679480491,-1.129964,0.3233,-1.541958
1630679480500,-1.000156,0.31677299999999997,-1.406843
1630679480510,-0.875228,0.299083,-1.232017
1630679480520,-0.733586,0.275476,-1.081591
1630679480529,-0.578097,0.189893,-0.8860859999999999
1630679480539,-0.453901,0.104859,-0.724924
1630679480548,-0.359168,0.05734,-0.592432
1630679480558,-0.30622,-0.021167,-0.488305
1630679480568,-0.250588,-0.045628,-0.407785
1630679480577,-0.201788,-0.056364,-0.374296
1630679480587,-0.150243,-0.063379,-0.322324
1630679480596,-0.093147,-0.067832,-0.246501
1630679480606,-0.043798,-0.058743,-0.152317
1630679480616,0.008784,-0.043615,-0.075335
1630679480625,0.036051,-0.013908,-0.021228
1630679480635,0.041968,0.018422,-0.01098
1630679480644,0.03477,0.024095,-0.015127999999999999
1630679480654,0.030683,0.005612,-0.02745
1630679480664,0.042638999999999996,-0.016531,-0.040077
1630679480673,0.042029,-0.050508,-0.037881
1630679480683,0.03721,-0.063013,-0.042212
1630679480692,0.003172,-0.078019,-0.057583999999999996
1630679480702,-0.054168,-0.062708,-0.073139
1630679480712,-0.13511499999999999,-0.054107,-0.104127
1630679480721,-0.256932,-0.080276,-0.166408
1630679480731,-0.603229,-0.0011589999999999999,-0.327204
1630679480740,-0.863638,0.109068,-0.58377
1630679480750,-0.933056,0.211121,-0.80337
1630679480760,-1.020408,0.29646,-0.929701
1630679480769,-1.05896,0.18409799999999998,-0.9447679999999999
1630679480779,-1.022848,-0.041358,-0.877058
1630679480788,-1.0800049999999999,-0.151097,-0.827587
1630679480798,-1.260016,-0.149938,-0.864736
1630679480808,-1.484618,-0.10607899999999999,-1.002169
1630679480817,-1.689822,-0.06709999999999999,-1.17852
1630679480827,-1.839516,-0.023607,-1.306925
1630679480836,-1.8892309999999999,-0.058682,-1.363167
1630679480846,-1.8843509999999999,-0.07015,-1.373659
1630679480856,-1.815848,-0.061121999999999996,-1.255746
1630679480865,-1.762534,-0.034038,-1.149606
1630679480875,-1.70617,-0.074847,-1.113982
1630679480884,-1.631689,-0.115961,-1.094462
1630679480894,-1.524573,-0.149816,-1.080676
1630679480904,-1.35969,-0.209535,-1.058228
1630679480913,-1.208166,-0.227469,-0.996618
1630679480923,-1.039928,-0.202642,-0.932812
1630679480932,-0.863699,-0.16530999999999998,-0.900421
1630679480942,-0.731085,-0.11577799999999999,-0.808616
1630679480952,-0.562786,-0.09333,-0.724314
1630679480961,-0.477996,-0.10022299999999999,-0.639219
1630679480971,-0.419558,-0.102236,-0.505873
1630679480980,-0.407053,-0.152622,-0.337696
1630679480990,-0.328668,-0.177693,-0.254675
1630679481000,-0.189283,-0.157868,-0.221735
1630679481009,-0.101626,-0.14036099999999999,-0.134871
1630679481019,-0.031415,-0.021533,-0.187514
1630679481028,0.05917,-0.143472,-0.12017
1630679481038,-0.0037819999999999998,-0.087047,-0.057401
1630679481048,-0.032818,-0.063684,-0.079849
1630679481057,-0.0183,-0.086986,-0.083448
1630679481067,-0.023667999999999998,-0.079483,-0.11956
1630679481076,-0.009516,-0.07259,-0.081374
1630679481086,-0.02684,-0.135603,-0.080886
1630679481096,-0.072102,-0.134383,-0.08662
1630679481105,-0.11962099999999999,-0.120414,-0.062525
1630679481115,-0.108397,-0.10004,-0.17086099999999999
1630679481124,-0.277123,0.021289,-0.284626
1630679481134,-0.555466,0.137433,-0.43999299999999997
1630679481144,-0.776713,0.181902,-0.636779
1630679481153,-0.854366,0.165554,-0.762439
1630679481163,-0.8699209999999999,0.151158,-0.856684
1630679481172,-0.853268,0.082777,-0.911157
1630679481182,-0.8821209999999999,0.07686,-0.917501
1630679481192,-0.98759,0.14066599999999999,-0.910059
1630679481201,-1.124047,0.15799,-0.944585
1630679481211,-1.2768519999999999,0.18849,-1.012112
1630679481220,-1.421483,0.190503,-1.114653
1630679481230,-1.584231,0.19763999999999998,-1.217438
1630679481240,-1.731119,0.207583,-1.327299
1630679481249,-1.749724,0.198982,-1.3766479999999999
1630679481259,-1.7277639999999999,0.224053,-1.316929
1630679481268,-1.694336,0.251625,-1.27124
1630679481278,-1.6543809999999999,0.26931499999999997,-1.218597
1630679481288,-1.5695299999999999,0.277367,-1.167235
1630679481297,-1.44143,0.284443,-1.103002
1630679481307,-1.255685,0.295545,-1.025044
1630679481316,-1.108309,0.261202,-0.942999
1630679481326,-0.918416,0.191601,-0.829112
1630679481336,-0.744444,0.121756,-0.718519
1630679481345,-0.622749,0.043248999999999996,-0.626592
1630679481355,-0.511851,-0.041968,-0.552965
1630679481364,-0.443409,-0.101931,-0.498614
1630679481374,-0.393694,-0.129625,-0.432002
1630679481384,-0.323117,-0.152439,-0.382775
1630679481393,-0.259189,-0.14865699999999998,-0.324154
1630679481403,-0.19428499999999999,-0.12322,-0.252784
1630679481412,-0.13176,-0.106933,-0.195993
1630679481422,-0.084912,-0.067893,-0.14219099999999998
1630679481432,-0.046482,-0.01586,-0.103883
1630679481441,-0.016347999999999998,0.014152,-0.069967
1630679481451,0.003294,0.022448,-0.065758
1630679481460,0.013359,0.018483,-0.061488
1630679481470,0.054046,-0.006527,-0.054839
1630679481480,0.031537,-0.053009,-0.06478199999999999
1630679481489,0.011895,-0.104249,-0.07381
1630679481499,-0.060878,-0.134566,-0.100162
1630679481508,-0.125599,-0.15128,-0.16226
1630679481518,-0.294935,-0.165981,-0.320067
1630679481528,-0.5663239999999999,-0.069967,-0.572912
1630679481537,-0.6803939999999999,-0.003294,-0.770979
1630679481547,-0.7151029999999999,0.064843,-0.930433
1630679481556,-0.789279,0.140605,-1.045235
1630679481566,-0.805322,0.14274,-1.052128
1630679481576,-0.781837,0.08967,-0.98576
1630679481585,-0.789462,0.0028669999999999998,-0.915915
1630679481595,-0.921161,-0.037942,-0.9207339999999999
1630679481604,-1.083543,-0.008662,-1.013454
1630679481614,-1.229455,0.04636,-1.220732
1630679481624,-1.310341,0.095709,-1.407575
1630679481633,-1.333399,0.095099,-1.581303
1630679481643,-1.336937,0.053863,-1.687809
1630679481652,-1.320711,0.027267,-1.660298
1630679481662,-1.342183,0.084058,-1.574654
1630679481672,-1.373537,0.141093,-1.494805
1630679481681,-1.3864079999999999,0.168482,-1.444907
1630679481691,-1.351699,0.187209,-1.37555
1630679481700,-1.2795969999999999,0.186538,-1.279841
1630679481710,-1.17913,0.180011,-1.157719
1630679481720,-1.048834,0.156892,-1.028399
1630679481729,-0.917928,0.127124,-0.91805
1630679481739,-0.803553,0.10675,-0.824659
1630679481748,-0.710955,0.08649799999999999,-0.746457
1630679481758,-0.63623,0.069601,-0.675209
1630679481768,-0.544364,0.066612,-0.619455
1630679481777,-0.449692,0.041053,-0.560468
1630679481787,-0.363987,0.000366,-0.485438
1630679481796,-0.265899,-0.04331,-0.407846
1630679481806,-0.164578,-0.091866,-0.335012
1630679481816,-0.066307,-0.145973,-0.26809499999999997
1630679481825,-0.011956,-0.16897,-0.20252
1630679481835,0.019398,-0.180804,-0.185074
1630679481844,0.034343,-0.163602,-0.186904
1630679481854,0.035868,-0.148291,-0.201117
1630679481864,0.034221,-0.127856,-0.202764
1630679481873,0.034099,-0.117974,-0.196054
1630679481883,0.046665,-0.110044,-0.196664
1630679481892,0.066551,-0.103029,-0.189466
1630679481902,0.069845,-0.113887,-0.180743
1630679481912,0.040565,-0.122183,-0.20319099999999998
1630679481921,-0.061426999999999995,-0.088389,-0.2867
1630679481931,-0.20288599999999998,-0.05307,-0.434808
1630679481940,-0.43968799999999997,0.0034159999999999998,-0.633119
1630679481950,-0.590236,0.046421,-0.817949
1630679481960,-0.653249,0.0915,-0.985821
1630679481969,-0.7108329999999999,0.201483,-1.107394
1630679481979,-0.7169329999999999,0.283101,-1.171932
1630679481988,-0.723826,0.29761899999999997,-1.119228
1630679481998,-0.772321,0.327631,-1.11508
1630679482008,-0.8352729999999999,0.335012,-1.128866
1630679482017,-0.95404,0.343796,-1.19194
1630679482027,-1.0928149999999999,0.373259,-1.312354
1630679482036,-1.173518,0.359839,-1.451739
1630679482046,-1.234152,0.305305,-1.58539
1630679482056,-1.247267,0.260104,-1.6674959999999999
1630679482065,-1.252818,0.27327999999999997,-1.63358
1630679482075,-1.292773,0.367952,-1.5744099999999999
1630679482084,-1.325774,0.465979,-1.542873
1630679482094,-1.333521,0.499041,-1.507371
1630679482104,-1.250378,0.479765,-1.430084
1630679482113,-1.134844,0.447069,-1.311134
1630679482123,-0.987163,0.397354,-1.164917
1630679482132,-0.840336,0.31860299999999997,-1.00711
1630679482142,-0.69052,0.237839,-0.872544
1630679482152,-0.566751,0.132248,-0.741333
1630679482161,-0.477386,0.062586,-0.654835
1630679482171,-0.42151,0.00366,-0.571936
1630679482180,-0.373564,-0.039833,-0.515389
1630679482190,-0.345931,-0.071492,-0.44956999999999997
1630679482200,-0.289689,-0.08326499999999999,-0.413946
1630679482209,-0.229665,-0.10437099999999999,-0.378749
1630679482219,-0.191235,-0.105713,-0.327448
1630679482228,-0.129137,-0.093147,-0.277367
1630679482238,-0.111996,-0.07387099999999999,-0.202154
1630679482248,-0.072285,-0.061061,-0.150365
1630679482257,-0.056791,-0.043248999999999996,-0.120536
1630679482267,-0.054839,-0.025376,-0.096624
1630679482276,-0.050508,-0.0032329999999999998,-0.054473
1630679482286,-0.038551999999999996,-0.008052,-0.020374
1630679482296,-0.029158,-0.028975,0.008235
1630679482305,-0.028853,-0.066795,0.020252
1630679482315,-0.030866,-0.09265899999999999,0.0017079999999999999
1630679482324,-0.056974,-0.119133,-0.01159
1630679482334,-0.13176,-0.096258,-0.093269
1630679482344,-0.249307,-0.052216,-0.203435
1630679482353,-0.512522,0.07625,-0.405711
1630679482363,-0.775188,0.252357,-0.6426959999999999
1630679482372,-0.830454,0.320189,-0.834602
1630679482382,-0.834846,0.321775,-0.939034
1630679482392,-0.8334429999999999,0.282674,-0.998143
1630679482401,-0.839665,0.181719,-0.942572
1630679482411,-0.864065,0.14249599999999998,-0.896273
1630679482420,-0.984113,0.132675,-0.8906
1630679482430,-1.137162,0.192333,-0.964044
1630679482440,-1.298812,0.297436,-1.128927
1630679482449,-1.404281,0.36880599999999997,-1.319369
1630679482459,-1.458998,0.428464,-1.498404
1630679482468,-1.480775,0.475861,-1.592954
1630679482478,-1.4797989999999999,0.457134,-1.567944
1630679482488,-1.461255,0.426634,-1.498648
1630679482497,-1.42618,0.433771,-1.445395
1630679482507,-1.395375,0.394487,-1.3969
1630679482516,-1.332789,0.344711,-1.358226
1630679482526,-1.2327489999999999,0.29036,-1.296311
1630679482536,-1.096597,0.243451,-1.221281
1630679482545,-0.947757,0.197457,-1.122217
1630679482555,-0.799161,0.144448,-1.019554
1630679482564,-0.6864939999999999,0.1159,-0.921527
1630679482574,-0.599081,0.123586,-0.82289
1630679482584,-0.524539,0.121207,-0.720837
1630679482593,-0.463539,0.09820999999999999,-0.628605
1630679482603,-0.407175,0.06709999999999999,-0.546682
1630679482612,-0.330986,0.034831,-0.4758
1630679482622,-0.225273,-0.03233,-0.390339
1630679482632,-0.115595,-0.112972,-0.33244999999999997
1630679482641,-0.05307,-0.189832,-0.298595
1630679482651,0.019275999999999998,-0.244976,-0.289323
1630679482660,0.029768,-0.268644,-0.287554
1630679482670,0.037454,-0.246379,-0.295057
1630679482680,0.06466,-0.23369099999999998,-0.28304
1630679482689,0.061121999999999996,-0.148596,-0.28285699999999997
1630679482699,0.029158,-0.0017079999999999999,-0.194224
1630679482708,-0.0732,-0.075274,-0.19672499999999998
1630679482718,-0.07442,0.035075,-0.08558299999999999
1630679482728,0.056608,0.009516,-0.080703
1630679482737,-0.066612,-0.020435,-0.072285
1630679482747,-0.161162,-0.029523999999999998,-0.136579
1630679482756,-0.191418,-0.059536,-0.34416199999999997
1630679482766,-0.428952,-0.009455,-0.542473
1630679482776,-0.56791,-0.029463,-0.815143
1630679482785,-0.7592059999999999,0.013297999999999999,-0.965691
1630679482795,-0.766892,0.08113,-1.033096
1630679482804,-0.81557,0.071614,-1.04127
1630679482814,-0.824842,0.12102399999999999,-0.984235
1630679482824,-0.913414,0.170129,-0.939156
1630679482833,-0.954101,0.110166,-1.021079
1630679482843,-1.111969,0.067771,-1.091046
1630679482852,-1.25904,0.000122,-1.226283
1630679482862,-1.416908,-0.024704999999999998,-1.337913
1630679482872,-1.523109,-0.0008539999999999999,-1.445883
1630679482881,-1.5606849999999999,0.013297999999999999,-1.468331
1630679482891,-1.634495,0.086864,-1.399462
1630679482900,-1.70861,0.19397999999999999,-1.296311
1630679482910,-1.691103,0.24851399999999998,-1.263493
1630679482920,-1.630652,0.24759899999999999,-1.222501
1630679482929,-1.500539,0.232288,-1.1408829999999999
1630679482939,-1.366949,0.21923399999999998,-1.062193
1630679482948,-1.16876,0.20191,-0.957029
1630679482958,-0.987163,0.199409,-0.854183
1630679482968,-0.809165,0.16836,-0.72773
1630679482977,-0.6353759999999999,0.110349,-0.637938
1630679482987,-0.527406,0.015738,-0.547841
1630679482996,-0.429013,-0.039162,-0.533506
1630679483006,-0.364292,-0.10919,-0.529114
1630679483016,-0.34465,-0.12456199999999999,-0.510448
1630679483025,-0.292861,-0.108214,-0.475251
1630679483035,-0.256139,-0.078507,-0.396622
1630679483044,-0.165798,-0.060511999999999996,-0.335988
1630679483054,-0.102358,-0.054717,-0.271572
1630679483064,-0.05795,-0.055632,-0.19794499999999998
1630679483073,-0.020496,-0.066795,-0.138104
1630679483083,0.001403,-0.068625,-0.089304
1630679483092,-0.021655,-0.052337999999999996,-0.031476
1630679483102,-0.004758,-0.06709999999999999,-0.010735999999999999
1630679483112,0.00793,-0.087535,-0.004514
1630679483121,0.036782999999999996,-0.106323,-0.045871999999999996
1630679483131,0.065636,-0.127978,-0.101321
1630679483140,0.040138,-0.134627,-0.151524
1630679483150,-0.0050019999999999995,-0.105164,-0.240096
1630679483160,-0.119682,-0.055937,-0.36819599999999997
1630679483169,-0.44743499999999997,0.128527,-0.62647
1630679483179,-0.645807,0.257054,-0.88755
1630679483188,-0.615856,0.24766,-1.00467
1630679483198,-0.6125619999999999,0.279136,-1.038403
1630679483208,-0.600362,0.253943,-1.01748
1630679483217,-0.595177,0.16439499999999999,-0.988932
1630679483227,-0.608963,0.070272,-0.968619
1630679483236,-0.758413,0.085522,-1.030656
1630679483246,-0.905667,0.188856,-1.127585
1630679483256,-1.0614,0.303963,-1.252147
1630679483265,-1.184193,0.38917999999999997,-1.3778679999999999
1630679483275,-1.238727,0.41504399999999997,-1.472662
1630679483284,-1.263859,0.436211,-1.49816
1630679483294,-1.26697,0.42797599999999997,-1.454728
1630679483304,-1.307352,0.43511299999999997,-1.389214
1630679483313,-1.373415,0.473665,-1.355786
1630679483323,-1.403061,0.473238,-1.339926
1630679483332,-1.384334,0.428647,-1.299239
1630679483342,-1.333887,0.38021299999999997,-1.22366
1630679483352,-1.251415,0.322324,-1.113311
1630679483361,-1.14009,0.273463,-0.991677
1630679483371,-1.025959,0.249368,-0.873703
1630679483380,-0.906399,0.20166599999999998,-0.780922
1630679483390,-0.794708,0.159393,-0.7345619999999999
1630679483400,-0.702964,0.136518,-0.701317
1630679483409,-0.607804,0.108336,-0.629947
1630679483419,-0.525149,0.073444,-0.561383
1630679483428,-0.45884199999999997,0.042822,-0.488488
1630679483438,-0.361608,-0.016774999999999998,-0.418033
1630679483448,-0.268583,-0.063379,-0.35770399999999997
1630679483457,-0.175497,-0.102663,-0.313296
1630679483467,-0.095343,-0.14518,-0.277672
1630679483476,-0.028059999999999998,-0.145546,-0.245281
1630679483486,0.007808,-0.126636,-0.224724
1630679483496,0.016836,-0.096014,-0.21276799999999998
1630679483505,0.019825,-0.085156,-0.214415
1630679483515,0.021289,-0.090768,-0.241255
1630679483524,0.046238,-0.106933,-0.275537
1630679483534,0.088145,-0.116571,-0.290299
1630679483544,0.086864,-0.119804,-0.30536599999999997
1630679483553,0.054107,-0.124074,-0.378932
1630679483563,-0.02318,-0.096685,-0.486719
1630679483572,-0.266143,0.102236,-0.671305
1630679483582,-0.437736,0.255102,-0.858148
1630679483592,-0.4392,0.234179,-0.930921
1630679483601,-0.449997,0.25668799999999997,-0.9718519999999999
1630679483611,-0.459635,0.233142,-1.040904
1630679483620,-0.50081,0.184952,-1.128134
1630679483630,-0.5456449999999999,0.20496,-1.194075
1630679483640,-0.601216,0.171349,-1.225673
1630679483649,-0.73993,0.211365,-1.29625
1630679483659,-0.914024,0.284565,-1.487485
1630679483668,-1.045235,0.33336499999999997,-1.6601759999999999
1630679483678,-1.138382,0.346053,-1.772294
1630679483688,-1.161013,0.346175,-1.8190199999999999
1630679483697,-1.166869,0.374967,-1.757776
1630679483707,-1.201944,0.45292499999999997,-1.6504159999999999
1630679483716,-1.244278,0.548878,-1.581547
1630679483726,-1.275998,0.555039,-1.53415
1630679483736,-1.2269539999999999,0.55022,-1.436062
1630679483745,-1.109834,0.477081,-1.322846
1630679483755,-0.9624579999999999,0.380274,-1.197064
1630679483764,-0.81069,0.283406,-1.077992
1630679483774,-0.665876,0.18788,-0.9703269999999999
1630679483784,-0.554368,0.117059,-0.870287
1630679483793,-0.456341,0.049288,-0.7771399999999999
1630679483803,-0.396134,-0.036417,-0.674782
1630679483812,-0.391681,-0.119438,-0.55327
1630679483822,-0.38326299999999996,-0.162992,-0.449326
1630679483832,-0.342149,-0.168665,-0.40119699999999997
1630679483841,-0.302621,-0.16165,-0.330864
1630679483851,-0.24820899999999999,-0.116266,-0.287005
1630679483860,-0.122976,-0.06740499999999999,-0.240218
1630679483870,-0.073383,-0.058133,-0.202215
1630679483880,-0.040382,-0.010309,-0.130845
1630679483889,-0.105042,0.002623,-0.022631
1630679483899,-0.23924199999999998,-0.116266,0.087291
1630679483908,-0.144692,0.003721,0.005856
1630679483918,-0.085705,0.019947,-0.011101999999999999
1630679483928,-0.017079999999999998,0.0032329999999999998,0.020313
1630679483937,0.015127999999999999,-0.017934,0.000244
1630679483947,0.018971,-0.082472,0.012383
1630679483956,0.012199999999999999,-0.056059,0.009943
1630679483966,-0.029402,-0.106506,-0.028853
1630679483976,-0.125965,-0.092415,-0.135542
1630679483985,-0.278526,-0.07448099999999999,-0.23954699999999998
1630679483995,-0.621834,-0.012565999999999999,-0.409859
1630679484004,-1.009306,0.18842899999999999,-0.695217
1630679484014,-1.090131,0.295606,-0.961299
1630679484024,-1.072075,0.200202,-0.9819169999999999
1630679484033,-1.042246,0.039528,-0.838506
1630679484043,-0.995032,-0.0854,-0.748714
1630679484052,-1.022604,-0.21459799999999998,-0.69906
1630679484062,-1.223843,-0.275842,-0.715957
1630679484072,-1.410503,-0.24509799999999998,-0.905606
1630679484081,-1.613877,-0.149816,-1.160342
1630679484091,-1.752469,-0.096502,-1.375184
1630679484100,-1.802672,-0.104188,-1.466806
1630679484110,-1.7691219999999999,-0.109251,-1.3873229999999999
1630679484120,-1.728801,-0.087413,-1.2364089999999999
1630679484129,-1.699338,-0.05795,-1.082933
1630679484139,-1.689029,-0.027327999999999998,-1.014613
1630679484148,-1.642974,-0.009699,-0.987285
1630679484158,-1.577887,-0.03111,-0.903532
1630679484168,-1.455948,-0.026962,-0.867786
1630679484177,-1.316258,-0.039589,-0.836005
1630679484187,-1.17059,-0.049288,-0.778604
1630679484196,-1.058594,-0.06283,-0.690703
1630679484206,-0.935923,-0.055083,-0.671854
1630679484216,-0.83021,-0.027511,-0.62037
1630679484225,-0.72834,-0.000549,-0.568093
1630679484235,-0.606584,0.005246,-0.531493
1630679484244,-0.49580799999999997,-0.013786,-0.488183
1630679484254,-0.392169,-0.015493999999999999,-0.434808
1630679484264,-0.282125,-0.028426,-0.389729
1630679484273,-0.176351,-0.065941,-0.342088
1630679484283,-0.096502,-0.093574,-0.277794
1630679484292,-0.0549,-0.108275,-0.223382
1630679484302,-0.062586,-0.112362,-0.188185
1630679484312,-0.085766,-0.083448,-0.168909
1630679484321,-0.087047,-0.06222,-0.15792899999999999
1630679484331,-0.078019,-0.058926,-0.137616
1630679484340,-0.061793,-0.061854,-0.10065
1630679484350,-0.034709,-0.065514,-0.057706
1630679484360,-0.013237,-0.077165,-0.021594
1630679484369,-0.003477,-0.083204,-0.0013419999999999999
1630679484379,-0.040199,-0.088267,-0.014274
1630679484388,-0.138409,-0.065514,-0.07869
1630679484398,-0.323666,-0.031964,-0.211121
1630679484408,-0.591334,0.067954,-0.398635
1630679484417,-0.79605,0.220942,-0.6189669999999999
1630679484427,-0.877424,0.320616,-0.786839
1630679484436,-0.905911,0.301523,-0.817949
1630679484446,-0.9015799999999999,0.180743,-0.812276
1630679484456,-0.910791,0.08912099999999999,-0.85278
1630679484465,-0.973255,0.092964,-0.9049349999999999
1630679484475,-1.026081,0.13786,-0.9450729999999999
1630679484484,-1.1831559999999999,0.14335,-0.9481229999999999
1630679484494,-1.509933,0.158722,-0.9821
1630679484504,-1.792546,0.300547,-1.187548
1630679484513,-1.953647,0.445849,-1.303814
1630679484523,-1.93065,0.462746,-1.352431
1630679484532,-1.890512,0.499285,-1.320711
1630679484542,-1.8741029999999999,0.594872,-1.25843
1630679484552,-1.800476,0.6195769999999999,-1.176324
1630679484561,-1.6696309999999999,0.5644939999999999,-1.081713
1630679484571,-1.521096,0.49489299999999997,-0.994117
1630679484580,-1.352553,0.44712999999999997,-0.908473
1630679484590,-1.165466,0.399855,-0.819962
1630679484600,-0.984296,0.334646,-0.708759
1630679484609,-0.8291729999999999,0.271389,-0.593286
1630679484619,-0.707966,0.255102,-0.484035
1630679484628,-0.63074,0.18056,-0.378627
1630679484638,-0.534787,0.138043,-0.321836
1630679484648,-0.46097699999999997,0.093818,-0.261324
1630679484657,-0.388631,0.055022,-0.234118
1630679484667,-0.329461,0.024949,-0.222345
1630679484676,-0.264191,0.010675,-0.216062
1630679484686,-0.18995399999999998,0.00061,-0.205936
1630679484696,-0.119499,-0.00671,-0.178181
1630679484705,-0.064965,-0.005307,-0.142618
1630679484715,-0.034892,0.009271999999999999,-0.091317
1630679484724,-0.023058,0.035623999999999996,-0.046055
1630679484734,-0.016714,0.07033299999999999,-0.017506999999999998
1630679484744,-0.002623,0.088999,-0.00793
1630679484753,0.025315,0.077531,-0.0050019999999999995
1630679484763,0.042212,0.040199,-0.003721
1630679484772,0.021716,0.01159,0.002257
1630679484782,-0.03294,-0.0073809999999999995,-0.007686
1630679484792,-0.10174799999999999,-0.00671,-0.036234
1630679484801,-0.22014899999999998,-0.014701,-0.088389
1630679484811,-0.5161209999999999,0.055327,-0.169763
1630679484820,-0.906704,0.252235,-0.324947
1630679484830,-1.156499,0.448716,-0.560468
1630679484840,-1.125755,0.529236,-0.730048
1630679484849,-1.000095,0.36667099999999997,-0.739564
1630679484859,-0.99552,0.198189,-0.719251
1630679484868,-1.03456,0.130662,-0.676673
1630679484878,-1.058899,0.106506,-0.6186619999999999
1630679484888,-1.270203,0.07649399999999999,-0.562908
1630679484897,-1.6790859999999999,0.228872,-0.7884249999999999
1630679484907,-1.9826219999999999,0.523807,-1.12911
1630679484916,-1.998604,0.533079,-1.213656
1630679484926,-1.998604,0.42883,-1.18645
1630679484936,-1.9139359999999999,0.332816,-0.9469029999999999
1630679484945,-1.9102759999999999,0.304878,-0.771833
1630679484955,-1.8673929999999999,0.26961999999999997,-0.699365
1630679484964,-1.775588,0.240218,-0.714737
1630679484974,-1.663287,0.219478,-0.739869
1630679484984,-1.5318319999999999,0.198982,-0.725717
1630679484993,-1.3796979999999999,0.185074,-0.676856
1630679485003,-1.220732,0.163846,-0.5903579999999999
1630679485012,-1.087447,0.180682,-0.554246
1630679485022,-0.948367,0.179645,-0.474092
1630679485032,-0.844667,0.206851,-0.43371
1630679485041,-0.727608,0.219722,-0.395524
1630679485051,-0.601094,0.211426,-0.36112
1630679485060,-0.462746,0.185196,-0.311161
1630679485070,-0.320494,0.13359,-0.25376
1630679485080,-0.201849,0.08265499999999999,-0.181109
1630679485089,-0.10315099999999999,-0.014274,-0.122732
1630679485099,-0.06161,-0.056303,-0.0854
1630679485108,-0.061061,-0.090646,-0.054046
1630679485118,-0.08479,-0.086071,-0.046176999999999996
1630679485128,-0.107116,-0.060451,-0.063928
1630679485137,-0.111752,-0.048922,-0.078141
1630679485147,-0.092598,-0.056608,-0.083082
1630679485156,-0.07198,-0.076677,-0.079361
1630679485166,-0.043432,-0.087108,-0.078629
1630679485176,-0.036966,-0.105408,-0.088633
1630679485185,-0.095404,-0.110044,-0.129137
1630679485195,-0.223443,-0.064355,-0.219356
1630679485204,-0.476105,0.034648,-0.344894
1630679485214,-0.80459,0.277123,-0.503982
1630679485224,-0.978989,0.48122899999999996,-0.67893
1630679485233,-0.9429379999999999,0.457256,-0.767502
1630679485243,-0.875228,0.30475599999999997,-0.745969
1630679485252,-0.844728,0.185928,-0.725168
1630679485262,-0.934093,0.229543,-0.7403569999999999
1630679485272,-0.9700219999999999,0.339282,-0.785253
1630679485281,-1.047736,0.38491,-0.800076
1630679485291,-1.294847,0.43737,-0.793793
1630679485300,-1.59942,0.471957,-0.949404
1630679485310,-1.841529,0.588406,-1.1724809999999999
1630679485320,-1.94346,0.5903579999999999,-1.341024
1630679485329,-1.889475,0.556442,-1.424045
1630679485339,-1.808467,0.650748,-1.340536
1630679485348,-1.7596669999999999,0.69235,-1.178459
1630679485358,-1.678964,0.633668,-1.075186
1630679485368,-1.555378,0.60634,-1.008086
1630679485377,-1.397998,0.568337,-0.918965
1630679485387,-1.232566,0.513132,-0.819657
1630679485396,-1.066524,0.449204,-0.709674
1630679485406,-0.9034099999999999,0.381555,-0.59414
1630679485416,-0.7753099999999999,0.317444,-0.484279
1630679485425,-0.678198,0.256566,-0.392657
1630679485435,-0.599874,0.195932,-0.32134799999999997
1630679485444,-0.524295,0.158905,-0.272731
1630679485454,-0.442616,0.138287,-0.235826
1630679485464,-0.358741,0.105896,-0.209901
1630679485473,-0.29365399999999997,0.082106,-0.18409799999999998
1630679485483,-0.223138,0.070272,-0.165066
1630679485492,-0.157014,0.065941,-0.14713199999999999
1630679485502,-0.134688,0.060816999999999996,-0.09881999999999999
1630679485512,-0.097051,0.071431,-0.056424999999999996
1630679485521,-0.07503,0.065819,-0.024949
1630679485531,-0.076738,0.056669,-0.004575
1630679485540,-0.069601,0.021471999999999998,-0.007869
1630679485550,-0.050691,0.010065,-0.011833999999999999
1630679485560,-0.039772,-0.004148,-0.006344
1630679485569,-0.046787,-0.00915,-0.002257
1630679485579,-0.08418,0.003843,-0.011467999999999999
1630679485588,-0.171898,0.027327999999999998,-0.039772
1630679485598,-0.42340099999999997,0.122976,-0.077714
1630679485608,-0.751825,0.27511,-0.19702999999999998
1630679485617,-0.963251,0.385032,-0.381799
1630679485627,-0.96197,0.424499,-0.543388
1630679485636,-0.887062,0.384056,-0.594201
1630679485646,-0.835395,0.224846,-0.626287
1630679485656,-0.892918,0.138714,-0.632204
1630679485665,-0.987407,0.164212,-0.693082
1630679485675,-1.06445,0.251076,-0.726815
1630679485684,-1.236287,0.32970499999999997,-0.65392
1630679485694,-1.573373,0.416325,-0.768905
1630679485704,-1.800964,0.592859,-1.006378
1630679485713,-1.8883159999999999,0.683078,-1.089887
1630679485723,-1.813103,0.5617489999999999,-1.032059
1630679485732,-1.755885,0.41968,-0.885903
1630679485742,-1.781932,0.367403,-0.747738
1630679485752,-1.724287,0.344223,-0.715164
1630679485761,-1.6674959999999999,0.311466,-0.691923
1630679485771,-1.575508,0.296033,-0.698633
1630679485780,-1.4599739999999999,0.235765,-0.671793
1630679485790,-1.344928,0.208376,-0.559492
1630679485800,-1.196149,0.166042,-0.462136
1630679485809,-1.052982,0.147864,-0.366793
1630679485819,-0.953491,0.161528,-0.29341
1630679485828,-0.85644,0.160491,-0.21368299999999998
1630679485838,-0.682712,0.145485,-0.262971
1630679485848,-0.670024,0.181475,-0.18903899999999998
1630679485857,-0.542046,0.152805,-0.19580999999999998
1630679485867,-0.435906,0.081801,-0.183549
1630679485876,-0.31049,0.0046359999999999995,-0.173362
1630679485886,-0.184891,-0.043554,-0.138287
1630679485896,-0.055876,-0.10577399999999999,-0.08497299999999999
1630679485905,-0.006222,-0.121146,-0.041358
1630679485915,-0.024583,-0.126819,-0.008967
1630679485924,-0.054412,-0.071797,-0.043798
1630679485934,-0.083997,-0.025071,-0.09759999999999999
1630679485944,-0.084363,0.012322,-0.16469999999999999
1630679485953,-0.086864,0.055022,-0.206546
1630679485963,-0.148474,0.133468,-0.264801
1630679485972,-0.290848,0.19397999999999999,-0.334707
1630679485982,-0.530151,0.251625,-0.455792
1630679485992,-0.699182,0.360144,-0.681736
1630679486001,-0.859734,0.446276,-0.776652
1630679486011,-0.875533,0.451827,-0.810446
1630679486020,-0.753655,0.345016,-0.824537
1630679486030,-0.702903,0.214537,-0.876753
1630679486040,-0.746945,0.174643,-0.9657519999999999
1630679486049,-0.81923,0.256749,-1.043283
1630679486059,-0.914024,0.347578,-1.059692
1630679486068,-1.123925,0.41260399999999997,-1.063413
1630679486078,-1.446554,0.5185609999999999,-1.178947
1630679486088,-1.6322379999999999,0.709857,-1.340719
1630679486097,-1.679452,0.8553419999999999,-1.4222759999999999
1630679486107,-1.61711,0.904386,-1.427705
1630679486116,-1.537078,0.875594,-1.389824
1630679486126,-1.465342,0.80764,-1.28527
1630679486136,-1.3847,0.727425,-1.19377
1630679486145,-1.322114,0.6791739999999999,-1.094096
1630679486155,-1.22488,0.662033,-1.009611
1630679486164,-1.097939,0.6390359999999999,-0.915549
1630679486174,-0.963617,0.602741,-0.801296
1630679486184,-0.8377129999999999,0.551806,-0.69174
1630679486193,-0.730109,0.491172,-0.59048
1630679486203,-0.623847,0.376919,-0.475617
1630679486212,-0.47268899999999997,0.279075,-0.491477
1630679486222,-0.41290899999999997,0.263398,-0.400099
1630679486232,-0.342454,0.197396,-0.384483
1630679486241,-0.272609,0.11895,-0.363682
1630679486251,-0.191601,0.069601,-0.35502
1630679486260,-0.11931599999999999,0.011101999999999999,-0.298412
1630679486270,-0.067039,-0.015127999999999999,-0.247172
1630679486280,-0.036356,-0.033428,-0.18971
1630679486289,0.008235,-0.069113,-0.1403
1630679486299,0.019642,-0.105652,-0.080154
1630679486308,-0.020191,-0.104249,-0.049166
1630679486318,-0.048251,-0.07124799999999999,-0.063135
1630679486328,-0.037332,-0.089853,-0.088938
1630679486337,-0.02623,-0.111203,-0.100284
1630679486347,-0.008662,-0.120292,-0.12566
1630679486356,-0.033367,-0.132004,-0.164273
1630679486366,-0.119255,-0.099796,-0.18409799999999998
1630679486376,-0.269864,-0.045384,-0.250222
1630679486385,-0.6082919999999999,0.100589,-0.371002
1630679486395,-0.979904,0.389973,-0.554856
1630679486404,-1.099647,0.61244,-0.690825
1630679486414,-0.986065,0.555344,-0.700219
1630679486424,-0.7653059999999999,0.204533,-0.6682549999999999
1630679486433,-0.7677459999999999,-0.0077469999999999995,-0.697352
1630679486443,-0.904447,0.025193,-0.791658
1630679486452,-0.982893,0.091378,-0.924028
1630679486462,-1.099952,0.20252,-1.010343
1630679486472,-1.342061,0.354471,-1.041209
1630679486481,-1.693848,0.571082,-1.207312
1630679486491,-1.755885,0.686128,-1.24745
1630679486500,-1.670424,0.537044,-1.211582
1630679486510,-1.513349,0.38003,-1.0824449999999999
1630679486520,-1.584292,0.352763,-1.006195
1630679486529,-1.650538,0.35282399999999997,-0.976183
1630679486539,-1.631201,0.30683,-0.9657519999999999
1630679486548,-1.580266,0.281149,-0.954894
1630679486558,-1.527135,0.326716,-0.968436
1630679486568,-1.434354,0.348493,-0.876143
1630679486577,-1.297226,0.28792,-0.790682
1630679486587,-1.153754,0.24583,-0.721874
1630679486596,-1.0276669999999999,0.215757,-0.624396
1630679486606,-0.940498,0.221796,-0.549366
1630679486616,-0.852109,0.232227,-0.486048
1630679486625,-0.752679,0.215147,-0.421937
1630679486635,-0.635254,0.170007,-0.358436
1630679486644,-0.526491,0.112667,-0.311222
1630679486654,-0.394853,0.052094,-0.28792
1630679486664,-0.300974,-0.01281,-0.245891
1630679486673,-0.21307299999999998,-0.069235,-0.196176
1630679486683,-0.16104,-0.11053199999999999,-0.161833
1630679486692,-0.136701,-0.102297,-0.133468
1630679486702,-0.111996,-0.094489,-0.111325
1630679486712,-0.126331,-0.066063,-0.093086
1630679486721,-0.149206,-0.042029,-0.090829
1630679486731,-0.147315,-0.021594,-0.10187
1630679486740,-0.12023099999999999,-0.034159999999999996,-0.094916
1630679486750,-0.087474,-0.049409999999999996,-0.082594
1630679486760,-0.067954,-0.061549,-0.054412
1630679486769,-0.06466,-0.050081,-0.067649
1630679486779,-0.14884,0.01281,-0.10113799999999999
1630679486788,-0.379542,0.17086099999999999,-0.196786
1630679486798,-0.649284,0.388936,-0.37149
1630679486808,-0.8230729999999999,0.53497,-0.538447
1630679486817,-0.8760209999999999,0.609146,-0.674233
1630679486827,-0.818498,0.529419,-0.721508
1630679486836,-0.7798849999999999,0.35892399999999997,-0.709796
1630679486846,-0.7896449999999999,0.276208,-0.74298
1630679486856,-0.848754,0.251137,-0.751337
1630679486865,-0.9082899999999999,0.25986,-0.841678
1630679486875,-1.035658,0.287737,-0.880779
1630679486884,-1.3389499999999999,0.446215,-0.944402
1630679486894,-1.695983,0.649589,-1.133746
1630679486904,-1.855681,0.749995,-1.318881
1630679486913,-1.795962,0.693387,-1.403854
1630679486923,-1.706902,0.6874089999999999,-1.4730889999999999
1630679486932,-1.658224,0.689605,-1.405867
1630679486942,-1.559343,0.658068,-1.339011
1630679486952,-1.427278,0.602985,-1.228235
1630679486961,-1.287649,0.559553,-1.09861
1630679486971,-1.1247179999999999,0.491233,-0.962214
1630679486980,-0.972645,0.43188,-0.843203
1630679486990,-0.848754,0.38948499999999997,-0.739198
1630679487000,-0.746884,0.348127,-0.658312
1630679487009,-0.647881,0.310063,-0.591639
1630679487019,-0.545706,0.257786,-0.518439
1630679487028,-0.444751,0.198372,-0.447191
1630679487038,-0.347578,0.127429,-0.38948499999999997
1630679487048,-0.267912,0.061732,-0.338794
1630679487057,-0.199043,0.008173999999999999,-0.29829
1630679487067,-0.136213,-0.036539,-0.261446
1630679487076,-0.073383,-0.073017,-0.226066
1630679487086,-0.029523999999999998,-0.092598,-0.182512
1630679487096,-0.012322,-0.10284599999999999,-0.139568
1630679487105,-0.024522,-0.09943,-0.117608
1630679487115,-0.056364,-0.058804,-0.11516799999999999
1630679487124,-0.069235,-0.009577,-0.121085
1630679487134,-0.074359,0.006161,-0.102114
1630679487144,-0.064538,-0.012688,-0.084912
1630679487153,-0.045811,-0.053985,-0.074542
1630679487163,-0.049104999999999996,-0.10113799999999999,-0.080154
1630679487172,-0.078934,-0.129808,-0.090402
1630679487182,-0.159393,-0.124745,-0.123037
1630679487192,-0.35868,-0.114924,-0.210511
1630679487201,-0.718336,-0.011773,-0.424987
1630679487211,-1.047553,0.16036899999999998,-0.7327319999999999
1630679487220,-1.060912,0.283101,-0.922991
1630679487230,-0.9441579999999999,0.227103,-0.944707
1630679487240,-0.8404579999999999,0.0915,-0.907863
1630679487249,-0.809287,-0.091073,-0.879864
1630679487259,-0.86193,-0.191723,-0.88328
1630679487268,-0.928237,-0.091012,-0.898103
1630679487278,-1.095743,0.07710399999999999,-0.888465
1630679487288,-1.3888479999999999,0.155733,-0.99125
1630679487297,-1.610095,0.253943,-1.199687
1630679487307,-1.709647,0.34038,-1.334192
1630679487316,-1.6981789999999999,0.27633,-1.305461
1630679487326,-1.676768,0.186538,-1.233176
1630679487336,-1.701961,0.169519,-1.141554
1630679487345,-1.682136,0.179096,-1.123925
1630679487355,-1.64456,0.197213,-1.073844
1630679487364,-1.578314,0.202398,-1.019249
1630679487374,-1.45363,0.195017,-0.955016
1630679487384,-1.300947,0.132248,-0.836005
1630679487393,-1.119228,0.069601,-0.726022
1630679487403,-0.948184,0.027084,-0.60573
1630679487412,-0.801662,0.021106,-0.518744
1630679487422,-0.721508,0.040504,-0.44212799999999997
1630679487432,-0.656604,0.086315,-0.4209
1630679487441,-0.580659,0.103639,-0.418155
1630679487451,-0.482388,0.085095,-0.40565
1630679487460,-0.380274,0.04209,-0.377712
1630679487470,-0.279929,-0.0073809999999999995,-0.338977
1630679487480,-0.172447,-0.062342,-0.301889
1630679487489,-0.090707,-0.105042,-0.254431
1630679487499,-0.045018,-0.122366,-0.212036
1630679487508,-0.032208,-0.12444,-0.181048
1630679487518,-0.036234,-0.099064,-0.16622499999999998
1630679487528,-0.020191,-0.078873,-0.156221
1630679487537,0.009882,-0.084668,-0.141703
1630679487547,0.030073,-0.079544,-0.138287
1630679487556,0.034709,-0.088572,-0.162199
1630679487566,-0.014761999999999999,-0.115046,-0.220332
1630679487576,-0.10437099999999999,-0.09943,-0.324886
1630679487585,-0.309148,-0.049593,-0.473726
1630679487595,-0.626165,0.132736,-0.694912
1630679487604,-0.8011739999999999,0.29792399999999997,-0.907253
1630679487614,-0.8078839999999999,0.246867,-0.951234
1630679487624,-0.71004,0.134993,-0.9444629999999999
1630679487633,-0.651541,-0.001586,-0.955626
1630679487643,-0.656299,-0.096685,-1.065975
1630679487652,-0.741333,0.010248,-1.146434
1630679487662,-0.799283,0.068137,-1.145824
1630679487672,-0.997045,0.134627,-1.109529
1630679487681,-1.302045,0.216733,-1.181143
1630679487691,-1.479128,0.315248,-1.3641429999999999
1630679487700,-1.594235,0.375028,-1.510848
1630679487710,-1.606191,0.4087,-1.642181
1630679487720,-1.592222,0.418948,-1.642852
1630679487729,-1.570018,0.441945,-1.582584
1630679487739,-1.537078,0.427,-1.4858989999999999
1630679487748,-1.494622,0.406931,-1.421178
1630679487758,-1.387872,0.40790699999999996,-1.358775
1630679487768,-1.222745,0.384849,-1.245986
1630679487777,-1.039074,0.35343399999999997,-1.086837
1630679487787,-0.86376,0.308538,-0.914939
1630679487796,-0.724131,0.251686,-0.744078
1630679487806,-0.611464,0.211426,-0.598471
1630679487816,-0.522648,0.169702,-0.48836599999999997
1630679487825,-0.44834999999999997,0.120902,-0.406016
1630679487835,-0.369233,0.048678,-0.351848
1630679487844,-0.305,-0.012322,-0.31659
1630679487854,-0.262056,-0.033367,-0.291336
1630679487864,-0.20874199999999998,-0.03782,-0.273158
1630679487873,-0.142557,-0.049532,-0.237351
1630679487883,-0.097783,-0.058682,-0.18501299999999998
1630679487892,-0.0732,-0.0427,-0.143777
1630679487902,-0.06405,-0.017385,-0.110776
1630679487912,-0.075335,0.018483,-0.07972699999999999
1630679487921,-0.080093,0.048617,-0.068259
1630679487931,-0.066551,0.055693,-0.055265999999999996
1630679487940,-0.038186,0.033489,-0.032513
1630679487950,-0.024278,0.003965,0.000366
1630679487960,-0.026657,-0.0046359999999999995,0.016104
1630679487969,-0.044286,-0.002806,0.013542
1630679487979,-0.11163,0.003172,-0.0070149999999999995
1630679487988,-0.272609,0.034404,-0.062159
1630679487998,-0.541436,0.117913,-0.189832
1630679488008,-0.834419,0.216245,-0.429257
1630679488017,-0.979721,0.280295,-0.648857
1630679488027,-0.9356789999999999,0.24479299999999998,-0.739625
1630679488036,-0.809653,0.114375,-0.72346
1630679488046,-0.786534,0.01891,-0.64294
1630679488056,-0.903288,0.017568,-0.639707
1630679488065,-0.998753,0.016409,-0.7071729999999999
1630679488075,-1.133929,-0.025254,-0.737185
1630679488084,-1.437648,0.030622,-0.904813
1630679488094,-1.689822,0.248453,-1.178398
1630679488104,-1.862696,0.37533299999999997,-1.366034
1630679488113,-1.873127,0.32025,-1.403183
1630679488123,-1.817739,0.206546,-1.284355
1630679488132,-1.809382,0.147925,-1.17486
1630679488142,-1.8016349999999999,0.128283,-1.106479
1630679488152,-1.776259,0.14579,-1.074332
1630679488161,-1.704706,0.156099,-1.0453569999999999
1630679488171,-1.592832,0.135481,-0.983076
1630679488180,-1.46217,0.109678,-0.908412
1630679488190,-1.318881,0.091622,-0.82289
1630679488200,-1.153449,0.07326099999999999,-0.734684
1630679488209,-1.01077,0.06527,-0.655689
1630679488219,-0.888892,0.089365,-0.592371
1630679488228,-0.790499,0.106933,-0.524661
1630679488238,-0.666852,0.10919,-0.48251
1630679488248,-0.549488,0.077897,-0.401319
1630679488257,-0.432734,0.038918,-0.350018
1630679488267,-0.315187,-0.008296,-0.282979
1630679488276,-0.208071,-0.059292,-0.214537
1630679488286,-0.11376499999999999,-0.113704,-0.1586
1630679488296,-0.06222,-0.146583,-0.113338
1630679488305,-0.070699,-0.125233,-0.077836
1630679488315,-0.099613,-0.07679899999999999,-0.080764
1630679488324,-0.122732,-0.041784999999999996,-0.080215
1630679488334,-0.138165,-0.023485,-0.079239
1630679488344,-0.113094,-0.035197,-0.06770999999999999
1630679488353,-0.060756,-0.07808,-0.047397
1630679488363,-0.020007999999999998,-0.11773,-0.02501
1630679488372,-0.006954,-0.131394,-0.023607
1630679488382,-0.048617,-0.102663,-0.052155
1630679488392,-0.152744,-0.032818,-0.11962099999999999
1630679488401,-0.355203,0.062586,-0.240523
1630679488411,-0.663924,0.251503,-0.422364
1630679488420,-0.930372,0.442372,-0.611403
1630679488430,-1.024556,0.524356,-0.75274
1630679488440,-0.942206,0.431819,-0.798673
1630679488449,-0.850218,0.28194199999999997,-0.754692
1630679488459,-0.884927,0.235948,-0.737368
1630679488468,-0.944707,0.275537,-0.725107
1630679488478,-1.0279719999999999,0.331901,-0.748165
1630679488488,-1.2293939999999999,0.430843,-0.777262
1630679488497,-1.597224,0.611403,-0.898469
1630679488507,-1.8974659999999999,0.758047,-1.125816
1630679488516,-1.998543,0.776896,-1.304546
1630679488526,-1.918999,0.699243,-1.3620079999999999
1630679488536,-1.84403,0.674782,-1.359324
1630679488545,-1.797914,0.696437,-1.2838669999999999
1630679488555,-1.7241039999999999,0.713151,-1.1468
1630679488564,-1.630774,0.6800889999999999,-1.005341
1630679488574,-1.490657,0.636779,-0.907192
1630679488584,-1.298751,0.594079,-0.809653
1630679488593,-1.100257,0.539667,-0.697352
1630679488603,-0.926346,0.483974,-0.589382
1630679488612,-0.788974,0.424194,-0.48684099999999997
1630679488622,-0.670024,0.356911,-0.40016
1630679488632,-0.5551,0.277306,-0.337574
1630679488641,-0.455853,0.190747,-0.286944
1630679488651,-0.373442,0.124745,-0.26034799999999997
1630679488660,-0.305122,0.075396,-0.246745
1630679488670,-0.235521,0.035623999999999996,-0.230092
1630679488680,-0.17507,0.011163,-0.201544
1630679488689,-0.11223999999999999,0.000732,-0.162748
1630679488699,-0.063928,-0.0051849999999999995,-0.107726
1630679488708,-0.038064,0.002623,-0.043432
1630679488718,-0.04514,0.029646,0.010003999999999999
1630679488728,-0.076738,0.078446,0.037271
1630679488737,-0.082411,0.110715,0.033611
1630679488747,-0.055022,0.094733,0.02684
1630679488756,-0.013603,0.041297,0.038857
1630679488766,0.010431,-0.003294,0.058804
1630679488776,0.003111,-0.027694,0.063196
1630679488785,-0.038674,-0.025254,0.046238
1630679488795,-0.143777,0.011467999999999999,0.000183
1630679488804,-0.399916,0.14713199999999999,-0.061732
1630679488814,-0.746884,0.353556,-0.196664
1630679488824,-1.046516,0.55144,-0.403088
1630679488833,-1.056703,0.571448,-0.6125619999999999
1630679488843,-0.874618,0.367952,-0.641354
1630679488852,-0.793488,0.129625,-0.593652
1630679488862,-0.947086,0.09881999999999999,-0.55083
1630679488872,-1.079883,0.156282,-0.558882
1630679488881,-1.174799,0.214232,-0.5404599999999999
1630679488891,-1.493036,0.335622,-0.609573
1630679488900,-1.858182,0.614026,-0.86742
1630679488910,-1.998604,0.786473,-1.0918999999999999
1630679488920,-1.998604,0.715469,-1.100074
1630679488929,-1.96115,0.582977,-0.969229
1630679488939,-1.968775,0.524661,-0.8358829999999999
1630679488948,-1.9562089999999999,0.558516,-0.767685
1630679488958,-1.910398,0.59414,-0.7415769999999999
1630679488968,-1.869284,0.62464,-0.74847
1630679488977,-1.8025499999999999,0.627385,-0.73139
1630679488987,-1.673352,0.5921879999999999,-0.681858
1630679488996,-1.496696,0.520208,-0.603351
1630679489006,-1.301252,0.445361,-0.517707
1630679489016,-1.129842,0.395097,-0.451217
1630679489025,-0.983808,0.366549,-0.38295799999999997
1630679489035,-0.861991,0.35563,-0.334524
1630679489044,-0.724924,0.32574,-0.308782
1630679489054,-0.586454,0.26535,-0.27388999999999997
1630679489064,-0.466406,0.202703,-0.246196
1630679489073,-0.350201,0.143289,-0.224541
1630679489083,-0.235094,0.075091,-0.191845
1630679489092,-0.142984,0.010553,-0.14579
1630679489102,-0.088938,-0.038064,-0.097966
1630679489112,-0.06039,-0.05185,-0.068442
1630679489121,-0.060695,-0.042761,-0.052094
1630679489131,-0.088572,-0.032025,-0.027267
1630679489140,-0.124501,-0.0051849999999999995,-0.0057339999999999995
1630679489150,-0.131394,0.004697,0.013603
1630679489160,-0.102236,-0.020801,0.02745
1630679489169,-0.05917,-0.069601,0.046421
1630679489179,-0.029402,-0.107848,0.068076
1630679489188,-0.026474,-0.121878,0.067527
1630679489198,-0.067344,-0.110959,0.020801
1630679489208,-0.191723,-0.04087,-0.054960999999999996
1630679489217,-0.372161,0.088145,-0.165798
1630679489227,-0.626714,0.25986,-0.308233
1630679489236,-0.9000549999999999,0.482937,-0.46482
1630679489246,-1.049322,0.645258,-0.646417
1630679489256,-0.990152,0.63013,-0.721386
1630679489265,-0.879132,0.456402,-0.682285
1630679489275,-0.904081,0.38887499999999997,-0.622871
1630679489284,-1.000278,0.477081,-0.6320209999999999
1630679489294,-1.099342,0.571265,-0.65026
1630679489304,-1.298934,0.61915,-0.674416
1630679489313,-1.6047879999999999,0.666486,-0.763293
1630679489323,-1.849581,0.760914,-0.93879
1630679489332,-1.986526,0.831796,-1.096658
1630679489342,-1.998604,0.845643,-1.21268
1630679489352,-1.965847,0.880962,-1.217255
1630679489361,-1.892403,0.952576,-1.134295
1630679489371,-1.831403,0.972279,-1.0313269999999999
1630679489380,-1.73484,0.934337,-0.950929
1630679489390,-1.601616,0.874618,-0.878278
1630679489400,-1.430694,0.800991,-0.800686
1630679489409,-1.22549,0.713334,-0.721996
1630679489419,-1.00833,0.609878,-0.622932
1630679489428,-0.815631,0.502152,-0.50569
1630679489438,-0.666608,0.413702,-0.39497499999999997
1630679489448,-0.56364,0.33958699999999997,-0.291763
1630679489457,-0.469517,0.271633,-0.225822
1630679489467,-0.383385,0.190503,-0.179584
1630679489476,-0.310978,0.125721,-0.154574
1630679489486,-0.24942899999999998,0.078141,-0.144143
1630679489496,-0.168848,0.056974,-0.144143
1630679489505,-0.072529,0.02196,-0.141642
1630679489515,-0.019154,0.000976,-0.10607899999999999
1630679489524,-0.0048189999999999995,0.002745,-0.065819
1630679489534,-0.01342,0.036539,-0.047763
1630679489544,-0.036417,0.092842,-0.047030999999999996
1630679489553,-0.044225,0.132919,-0.052216
1630679489563,-0.01647,0.135969,-0.053131
1630679489572,0.022387,0.09790499999999999,-0.035685
1630679489582,0.038979,0.049104999999999996,-0.003294
1630679489592,0.03477,0.02013,0.011773
1630679489601,-6.1e-05,-0.009516,0.011346
1630679489611,-0.076372,-0.012199999999999999,-0.01281
1630679489620,-0.18056,0.00042699999999999997,-0.055205
1630679489630,-0.40443,0.068991,-0.124928
1630679489640,-0.776591,0.303658,-0.245891
1630679489649,-1.085617,0.5696789999999999,-0.479643
1630679489659,-1.050542,0.615673,-0.7169329999999999
1630679489668,-0.844972,0.432856,-0.710894
1630679489678,-0.762378,0.238144,-0.590724
1630679489688,-0.8784609999999999,0.183854,-0.509106
1630679489697,-0.970266,0.233264,-0.478606
1630679489707,-1.084519,0.299571,-0.44987499999999997
1630679489716,-1.426302,0.447801,-0.554124
1630679489726,-1.795596,0.733098,-0.847656
1630679489736,-1.998604,0.8976149999999999,-1.055849
1630679489745,-1.998604,0.81069,-1.099708
1630679489755,-1.998604,0.687653,-0.993629
1630679489764,-1.998604,0.6581899999999999,-0.899323
1630679489774,-1.998604,0.6621549999999999,-0.815936
1630679489784,-1.936506,0.668133,-0.780068
1630679489793,-1.8728829999999999,0.654896,-0.7561559999999999
1630679489803,-1.791204,0.607316,-0.725229
1630679489812,-1.637789,0.532469,-0.662704
1630679489822,-1.44387,0.44029799999999997,-0.590175
1630679489832,-1.237873,0.368623,-0.518744
1630679489841,-1.039318,0.316956,-0.445422
1630679489851,-0.902739,0.296765,-0.381921
1630679489860,-0.810263,0.301096,-0.3233
1630679489870,-0.7166279999999999,0.310429,-0.307684
1630679489880,-0.59353,0.281698,-0.281515
1630679489889,-0.464088,0.235399,-0.259555
1630679489899,-0.34629699999999997,0.164212,-0.217648
1630679489908,-0.230824,0.071614,-0.159576
1630679489918,-0.11956,-0.001586,-0.099552
1630679489928,-0.043981,-0.061488,-0.052216
1630679489937,-0.016653,-0.099369,-0.013176
1630679489947,-0.041968,-0.096258,0.008479
1630679489956,-0.091622,-0.066978,0.003111
1630679489966,-0.122,-0.036478,-0.02135
1630679489976,-0.108092,-0.039345,-0.042578
1630679489985,-0.066185,-0.077775,-0.046604
1630679489995,-0.032818,-0.11699799999999999,-0.035746
1630679490004,-0.024766,-0.13054,-0.040687
1630679490014,-0.050081,-0.11529,-0.072773
1630679490024,-0.12486699999999999,-0.059597,-0.144997
1630679490033,-0.27511,0.031842,-0.253943
1630679490043,-0.554612,0.19733499999999998,-0.396866
1630679490052,-0.897188,0.434442,-0.558272
1630679490062,-1.046516,0.581635,-0.737978
1630679490072,-0.962214,0.481595,-0.79483
1630679490081,-0.8535119999999999,0.30256,-0.74054
1630679490091,-0.891454,0.257115,-0.728828
1630679490100,-0.9816119999999999,0.36789099999999997,-0.745054
1630679490110,-1.059326,0.48061899999999996,-0.73993
1630679490120,-1.239032,0.599447,-0.745725
1630679490129,-1.586671,0.737368,-0.8784609999999999
1630679490139,-1.873981,0.868701,-1.110383
1630679490148,-1.998604,0.883158,-1.222867
1630679490158,-1.998604,0.8386279999999999,-1.29198
1630679490168,-1.918328,0.817339,-1.263981
1630679490177,-1.850435,0.852536,-1.164795
1630679490187,-1.7654619999999999,0.866444,-1.01931
1630679490196,-1.689334,0.8577819999999999,-0.92049
1630679490206,-1.565077,0.8364929999999999,-0.858575
1630679490216,-1.377746,0.787022,-0.775249
1630679490225,-1.153388,0.704245,-0.676124
1630679490235,-0.935008,0.594506,-0.552477
1630679490244,-0.7622559999999999,0.475068,-0.431392
1630679490254,-0.647515,0.391742,-0.332999
1630679490264,-0.547536,0.328668,-0.2745
1630679490273,-0.443165,0.253882,-0.248941
1630679490283,-0.35624,0.163358,-0.215025
1630679490292,-0.287798,0.07625,-0.192272
1630679490302,-0.236314,0.020557,-0.186233
1630679490312,-0.174704,-0.01525,-0.185745
1630679490321,-0.116876,-0.036966,-0.174277
1630679490331,-0.072346,-0.042212,-0.142252
1630679490340,-0.044102999999999996,-0.028609,-0.093635
1630679490350,-0.030560999999999998,-0.001952,-0.043127
1630679490360,-0.022692,0.028304,-0.003843
1630679490369,-0.022143,0.049532,0.018849
1630679490379,-0.020252,0.056608,0.024583
1630679490388,-0.0044529999999999995,0.027267,0.023607
1630679490398,0.01647,-0.02135,0.023363
1630679490408,0.018056,-0.060634,0.024156
1630679490417,-0.026168999999999998,-0.077165,0.017446
1630679490427,-0.120353,-0.066063,-0.01891
1630679490436,-0.296277,-0.028364999999999998,-0.096319
1630679490446,-0.63257,0.132736,-0.203313
1630679490456,-1.044198,0.410347,-0.410469
1630679490465,-1.203774,0.604632,-0.664412
1630679490475,-1.0401719999999999,0.505751,-0.7388319999999999
1630679490484,-0.829417,0.210816,-0.640012
1630679490494,-0.833809,0.070089,-0.547292
1630679490504,-0.96807,0.139202,-0.501298
1630679490513,-1.0864099999999999,0.23033599999999999,-0.471713
1630679490523,-1.36701,0.321714,-0.581269
1630679490532,-1.675853,0.539057,-0.857965
1630679490542,-1.903932,0.6913739999999999,-1.054202
1630679490552,-1.982683,0.636535,-1.12728
1630679490561,-1.91906,0.533445,-1.072014
1630679490571,-1.868186,0.504836,-0.9338489999999999
1630679490580,-1.914668,0.501664,-0.824964
1630679490590,-1.914912,0.516365,-0.820999
1630679490600,-1.864282,0.5216109999999999,-0.8255129999999999
1630679490609,-1.787178,0.503433,-0.824842
1630679490619,-1.682258,0.465674,-0.767319
1630679490628,-1.530063,0.408761,-0.679052
1630679490638,-1.343891,0.33989199999999997,-0.586637
1630679490648,-1.15534,0.27358499999999997,-0.495442
1630679490657,-1.000095,0.227652,-0.42858599999999997
1630679490667,-0.888343,0.209108,-0.36789099999999997
1630679490676,-0.782203,0.195322,-0.328912
1630679490686,-0.655201,0.161772,-0.30744
1630679490696,-0.516182,0.120536,-0.28560199999999997
1630679490705,-0.392108,0.079239,-0.25760299999999997
1630679490715,-0.268339,0.039467,-0.226249
1630679490724,-0.14865699999999998,-0.013847,-0.188551
1630679490734,-0.042517,-0.057279,-0.14127599999999998
1630679490744,0.030134,-0.09089,-0.086681
1630679490753,0.030927,-0.115412,-0.03233
1630679490763,-0.026413,-0.102358,-0.0055509999999999995
1630679490772,-0.083936,-0.058498999999999995,-0.028731
1630679490782,-0.103029,-0.028121,-0.07155299999999999
1630679490792,-0.078873,-0.037515,-0.102236
1630679490801,-0.034953,-0.066734,-0.105652
1630679490811,-0.026291,-0.09272,-0.108519
1630679490820,-0.079361,-0.063989,-0.14865699999999998
1630679490830,-0.21167,-0.011285,-0.233203
1630679490840,-0.465735,0.095038,-0.36941599999999997
1630679490849,-0.7376119999999999,0.274012,-0.549
1630679490859,-0.8748009999999999,0.422303,-0.70333
1630679490868,-0.843142,0.439932,-0.740479
1630679490878,-0.8148989999999999,0.310002,-0.74054
1630679490888,-0.773968,0.21801399999999999,-0.776469
1630679490897,-0.762988,0.208925,-0.786961
1630679490907,-0.80337,0.234789,-0.8106289999999999
1630679490916,-0.948672,0.284321,-0.8553419999999999
1630679490926,-1.267214,0.345626,-0.909937
1630679490936,-1.627297,0.481351,-1.090192
1630679490945,-1.8205449999999999,0.580171,-1.251537
1630679490955,-1.83549,0.56486,-1.383846
1630679490964,-1.774978,0.5617489999999999,-1.420995
1630679490974,-1.771135,0.654591,-1.374452
1630679490984,-1.764364,0.717421,-1.280878
1630679490993,-1.705743,0.668926,-1.204567
1630679491003,-1.637728,0.6186619999999999,-1.138626
1630679491012,-1.528721,0.58194,-1.069147
1630679491022,-1.363167,0.561627,-0.98759
1630679491032,-1.17852,0.509106,-0.892918
1630679491041,-0.9816119999999999,0.414617,-0.770857
1630679491051,-0.821914,0.32452,-0.643184
1630679491060,-0.68625,0.240096,-0.531859
1630679491070,-0.572058,0.173972,-0.440054
1630679491080,-0.463783,0.134444,-0.379481
1630679491089,-0.360632,0.065148,-0.329156
1630679491099,-0.275598,0.008723,-0.29402
1630679491108,-0.198433,-0.02989,-0.264862
1630679491118,-0.130662,-0.069357,-0.239669
1630679491128,-0.082899,-0.08064199999999999,-0.205204
1630679491137,-0.056119999999999996,-0.080459,-0.159027
1630679491147,-0.05185,-0.066246,-0.116632
1630679491156,-0.061549,-0.039162,-0.082411
1630679491166,-0.064599,-0.008418,-0.06527
1630679491176,-0.059597,-0.003538,-0.063684
1630679491185,-0.044774,-0.018605,-0.068564
1630679491195,-0.011712,-0.05185,-0.066612
1630679491204,0.018117,-0.096746,-0.061488
1630679491214,0.015067,-0.133224,-0.06283
1630679491224,-0.044712999999999996,-0.145058,-0.073627
1630679491233,-0.123525,-0.121207,-0.111569
1630679491243,-0.234118,-0.09638,-0.167506
1630679491252,-0.502274,-0.022692,-0.269742
1630679491262,-0.882609,0.15268299999999999,-0.45688999999999996
1630679491272,-1.105991,0.353068,-0.668377
1630679491281,-1.053287,0.446398,-0.751032
1630679491291,-0.882487,0.290848,-0.6893
1630679491300,-0.832162,0.092171,-0.647576
1630679491310,-0.921466,0.02684,-0.623298
1630679491320,-0.985943,0.035441,-0.622444
1630679491329,-1.142591,0.048922,-0.619699
1630679491339,-1.45363,0.117974,-0.789096
1630679491348,-1.764425,0.333121,-1.048651
1630679491358,-1.975424,0.468663,-1.208898
1630679491368,-1.998604,0.409432,-1.21573
1630679491377,-1.977925,0.303353,-1.100074
1630679491387,-1.987258,0.279502,-1.019493
1630679491396,-1.9890269999999999,0.333731,-0.9609329999999999
1630679491406,-1.9817069999999999,0.398696,-0.934398
1630679491416,-1.945107,0.408883,-0.931287
1630679491425,-1.833965,0.351543,-0.890966
1630679491435,-1.660847,0.275598,-0.8026989999999999
1630679491444,-1.449238,0.201849,-0.699731
1630679491454,-1.206641,0.134749,-0.585234
1630679491464,-1.004975,0.093147,-0.49294099999999996
1630679491473,-0.870287,0.099125,-0.41968
1630679491483,-0.773846,0.137799,-0.388448
1630679491492,-0.666669,0.15189,-0.325008
1630679491502,-0.575474,0.162199,-0.359107
1630679491512,-0.437004,0.14621699999999999,-0.276818
1630679491521,-0.307928,0.103822,-0.227408
1630679491531,-0.158295,0.029158,-0.15451299999999998
1630679491540,-0.036782999999999996,-0.051179,-0.07503
1630679491550,0.025071,-0.114558,-0.012199999999999999
1630679491560,0.031293,-0.142557,0.035868
1630679491569,-0.011833999999999999,-0.125904,0.042822
1630679491579,-0.063257,-0.085766,0.0028669999999999998
1630679491588,-0.083021,-0.048739,-0.069662
1630679491598,-0.066734,-0.049166,-0.120109
1630679491608,-0.036051,-0.07442,-0.130723
1630679491617,-0.012505,-0.110166,-0.12315899999999999
1630679491627,-0.010309,-0.136518,-0.116266
1630679491636,-0.046604,-0.14896199999999998,-0.140239
1630679491646,-0.137921,-0.133773,-0.19733499999999998
1630679491656,-0.29951,-0.071126,-0.298412
1630679491665,-0.602802,0.05063,-0.469883
1630679491675,-0.92842,0.266204,-0.659837
1630679491684,-1.059448,0.42334,-0.762195
1630679491694,-1.002535,0.392657,-0.804712
1630679491704,-0.908168,0.255102,-0.790438
1630679491713,-0.908961,0.215574,-0.803797
1630679491723,-0.994178,0.285358,-0.832101
1630679491732,-1.108004,0.424499,-0.888465
1630679491742,-1.4106859999999999,0.511912,-0.928908
1630679491752,-1.714832,0.679418,-1.1886459999999999
1630679491761,-1.920707,0.681797,-1.262761
1630679491771,-1.963163,0.617564,-1.423435
1630679491780,-1.879349,0.553514,-1.426729
1630679491790,-1.780102,0.572241,-1.363106
1630679491800,-1.700131,0.623542,-1.209935
1630679491809,-1.6720709999999999,0.642025,-1.107333
1630679491819,-1.6133279999999999,0.6335459999999999,-1.041331
1630679491828,-1.48657,0.614331,-0.97539
1630679491838,-1.307108,0.57584,-0.886818
1630679491848,-1.12789,0.528504,-0.7872049999999999
1630679491857,-0.96136,0.468114,-0.6694749999999999
1630679491867,-0.8109339999999999,0.403881,-0.554673
1630679491876,-0.6831389999999999,0.340441,-0.456524
1630679491886,-0.569313,0.273829,-0.366854
1630679491896,-0.46799199999999996,0.20410599999999998,-0.28914
1630679491905,-0.377224,0.13969,-0.239181
1630679491915,-0.28224699999999997,0.072773,-0.19794499999999998
1630679491924,-0.211304,0.02318,-0.169397
1630679491934,-0.154391,-0.007442,-0.14896199999999998
1630679491944,-0.122366,-0.016287,-0.122976
1630679491953,-0.08906,-0.007137,-0.101626
1630679491963,-0.062098,0.008235,-0.069662
1630679491972,-0.038674,0.022997,-0.033733
1630679491982,-0.026900999999999998,0.032147,0.0017079999999999999
1630679491992,-0.020374,0.03965,0.026962
1630679492001,-0.000183,0.031293,0.036722
1630679492011,0.024583,0.004514,0.041053
1630679492020,0.042517,-0.022692,0.044591
1630679492030,0.02318,-0.04514,0.041968
1630679492040,-0.038125,-0.031842,0.023546
1630679492049,-0.134932,-0.007137,-0.030134
1630679492059,-0.333304,0.068564,-0.106933
1630679492068,-0.677954,0.275415,-0.21490299999999998
1630679492078,-1.043588,0.555222,-0.389851
1630679492088,-1.138687,0.697169,-0.616588
1630679492097,-0.933788,0.495076,-0.655201
1630679492107,-0.828136,0.212402,-0.5410699999999999
1630679492116,-0.9256139999999999,0.15128,-0.488793
1630679492126,-1.037,0.24046199999999998,-0.481778
1630679492136,-1.1758359999999999,0.329888,-0.455243
