timestamp,ax,ay,az
1630680031663,-0.673867,-0.290482,-0.691496
1630680031673,-0.670024,-0.287371,-0.693753
1630680031682,-0.6685599999999999,-0.284138,-0.694668
1630680031692,-0.670268,-0.279624,-0.694546
1630680031701,-0.669597,-0.277611,-0.696498
1630680031711,-0.672586,-0.28011199999999997,-0.697535
1630680031721,-0.674172,-0.282369,-0.697718
1630680031730,-0.673501,-0.283955,-0.700341
1630680031740,-0.669902,-0.28304,-0.701744
1630680031749,-0.669292,-0.284199,-0.697901
1630680031759,-0.6682549999999999,-0.28163699999999997,-0.6954
1630680031769,-0.667279,-0.277733,-0.693936
1630680031778,-0.6673399999999999,-0.271694,-0.692777
1630680031788,-0.667462,-0.266875,-0.6907639999999999
1630680031797,-0.668438,-0.25986,-0.689666
1630680031807,-0.667096,-0.254553,-0.689666
1630680031817,-0.668621,-0.249246,-0.690215
1630680031826,-0.669109,-0.24705,-0.691496
1630680031836,-0.670146,-0.247111,-0.690947
1630680031845,-0.670878,-0.24631799999999998,-0.686677
1630680031855,-0.673074,-0.24339,-0.684481
1630680031865,-0.673928,-0.239791,-0.682407
1630680031874,-0.673196,-0.236375,-0.680943
1630680031884,-0.670634,-0.23424,-0.683566
1630680031893,-0.671427,-0.232837,-0.682285
1630680031903,-0.672281,-0.231922,-0.680516
1630680031913,-0.673196,-0.23064099999999998,-0.678137
1630680031922,-0.673745,-0.229604,-0.675941
1630680031932,-0.678808,-0.228567,-0.673379
1630680031941,-0.6803939999999999,-0.22447999999999999,-0.675758
1630680031951,-0.6813089999999999,-0.22478499999999998,-0.674172
1630680031961,-0.683322,-0.224541,-0.670451
1630678967008,-0.815448,0.137738,-0.553453
1630678967017,-0.818986,0.13419999999999999,-0.555893
1630678967027,-0.820023,0.126758,-0.562237
1630678967036,-0.820084,0.120902,-0.5635789999999999
1630678967046,-0.818925,0.115656,-0.5638839999999999
1630678967056,-0.820206,0.108702,-0.560651
1630678967065,-0.819352,0.10577399999999999,-0.560895
1630678967075,-0.820816,0.104493,-0.559004
1630678967084,-0.819474,0.105652,-0.557113
1630678967094,-0.819413,0.103944,-0.554856
1630678967104,-0.820328,0.105225,-0.55632
1630678967113,-0.821426,0.104188,-0.558699
1630678967123,-0.820816,0.104615,-0.557845
1630678967132,-0.8221579999999999,0.104249,-0.55571
1630678967142,-0.821243,0.108092,-0.552538
1630678967152,-0.821975,0.110166,-0.5462549999999999
1630678967161,-0.820938,0.115412,-0.5425949999999999
1630678967171,-0.820389,0.115839,-0.540582
1630678967180,-0.820755,0.119865,-0.540826
1630678967190,-0.821975,0.11840099999999999,-0.540033
1630678967200,-0.821609,0.124135,-0.539484
1630678967209,-0.82289,0.12456199999999999,-0.538142
1630678967219,-0.821792,0.125599,-0.53436
1630678967228,-0.819535,0.123891,-0.530395
1630678967238,-0.819779,0.123098,-0.527711
1630678967248,-0.819108,0.125172,-0.522099
1630678967257,-0.819047,0.129686,-0.518134
1630678967267,-0.818132,0.132614,-0.513132
1630678967276,-0.817827,0.135603,-0.509289
1630678967286,-0.818803,0.138531,-0.508435
1630678967296,-0.817949,0.143899,-0.508008
1630678967305,-0.820267,0.145424,-0.506239
1630678967315,-0.823195,0.147986,-0.504897
1630678967324,-0.825696,0.14896199999999998,-0.50203
1630678967334,-0.82838,0.149084,-0.500383
1630678967344,-0.830881,0.146644,-0.500444
1630678967353,-0.8364929999999999,0.144692,-0.501115
1630678967363,-0.837042,0.139995,-0.503067
1630678967372,-0.839177,0.140727,-0.503555
1630678967382,-0.84363,0.142557,-0.501481
1630678967392,-0.847473,0.145485,-0.49898
1630678967401,-0.847595,0.143838,-0.496601
1630678967411,-0.850401,0.144326,-0.49776
1630678967420,-0.8565619999999999,0.143045,-0.498736
1630678967430,-0.860405,0.14036099999999999,-0.503616
1630678967440,-0.863699,0.138653,-0.504897
1630678967449,-0.86803,0.143838,-0.502213
1630678967459,-0.876082,0.152744,-0.493124
1630678967468,-0.865651,0.149816,-0.48897599999999997
1630678967478,-0.867115,0.151341,-0.490257
1630678967488,-0.8702259999999999,0.146766,-0.495137
1630678967497,-0.867054,0.161772,-0.499041
1630678967507,-0.871019,0.145058,-0.495076
1630678967516,-0.8623569999999999,0.139019,-0.504287
1630678967526,-0.875167,0.137189,-0.49263599999999996
1630678967536,-0.861015,0.132187,-0.486902
1630678967545,-0.854793,0.127917,-0.478301
1630678967555,-0.862784,0.134261,-0.485987
1630678967564,-0.864309,0.133163,-0.502335
1630678967574,-0.862174,0.132065,-0.505507
1630678967584,-0.8601,0.129503,-0.502274
1630678967593,-0.864431,0.131455,-0.497211
1630678967603,-0.864248,0.14249599999999998,-0.494039
1630678967612,-0.863333,0.149328,-0.494222
1630678967622,-0.863638,0.15792899999999999,-0.494039
1630678967632,-0.863394,0.164212,-0.490257
1630678967641,-0.857904,0.16652999999999998,-0.483242
1630678967651,-0.854,0.168482,-0.477325
1630678967660,-0.85034,0.167201,-0.47641
1630678967670,-0.849486,0.17025099999999999,-0.47207899999999997
1630678967680,-0.846924,0.177754,-0.470737
1630678967689,-0.843142,0.17934,-0.46707699999999996
1630678967699,-0.840336,0.17976699999999998,-0.462746
1630678967708,-0.842044,0.178303,-0.457134
1630678967718,-0.842654,0.179279,-0.455792
1630678967728,-0.840946,0.176595,-0.45688999999999996
1630678967737,-0.84119,0.172508,-0.456036
1630678967747,-0.842776,0.17812,-0.454877
1630678967756,-0.843813,0.183854,-0.455426
1630678967766,-0.846253,0.18727,-0.455731
1630678967776,-0.847778,0.189161,-0.458171
1630678967785,-0.84912,0.188856,-0.454877
1630678967795,-0.850096,0.188612,-0.45139999999999997
1630678967804,-0.852658,0.185928,-0.451278
1630678967814,-0.856806,0.186965,-0.454633
1630678967824,-0.8593069999999999,0.188795,-0.458171
1630678967833,-0.863028,0.186111,-0.462075
1630678967843,-0.86803,0.17568,-0.466223
1630678967852,-0.8732759999999999,0.168238,-0.46768699999999996
1630678967862,-0.877912,0.165188,-0.46799199999999996
1630678967872,-0.879254,0.164212,-0.47085899999999997
1630678967881,-0.8790709999999999,0.164029,-0.475556
1630678967891,-0.878522,0.162321,-0.480436
1630678967900,-0.878339,0.157624,-0.483059
1630678967910,-0.878583,0.153964,-0.485377
1630678967920,-0.878705,0.149206,-0.483608
1630678967929,-0.8787659999999999,0.150853,-0.483852
1630678967939,-0.877302,0.153964,-0.48501099999999997
1630678967948,-0.874862,0.157258,-0.483303
1630678967958,-0.871202,0.159576,-0.48251
1630678967968,-0.868518,0.160491,-0.482083
1630678967977,-0.8651019999999999,0.161345,-0.483242
1630678967987,-0.863394,0.160308,-0.48318099999999997
1630678967996,-0.861076,0.162809,-0.481107
1630678968006,-0.858331,0.167323,-0.478911
1630678968016,-0.856196,0.171837,-0.476105
1630678968025,-0.852414,0.17360599999999998,-0.475678
1630678968035,-0.847351,0.174033,-0.474946
1630678968044,-0.847595,0.17507,-0.471713
1630678968054,-0.849669,0.182512,-0.473116
1630678968064,-0.847351,0.189161,-0.473787
1630678968073,-0.844911,0.18971,-0.473787
1630678968083,-0.84119,0.191357,-0.474092
1630678968092,-0.83875,0.192821,-0.473421
1630678968102,-0.837286,0.193126,-0.472811
1630678968112,-0.836554,0.193431,-0.476837
1630678968121,-0.835639,0.193736,-0.482327
1630678968131,-0.834541,0.193736,-0.48678
1630678968140,-0.8357,0.192394,-0.486292
1630678968150,-0.836127,0.187758,-0.484828
1630678968160,-0.83387,0.18056,-0.482266
1630678968169,-0.8334429999999999,0.17854699999999998,-0.48251
1630678968179,-0.8355779999999999,0.176168,-0.480436
1630678968188,-0.837835,0.171715,-0.483608
1630678968198,-0.8398479999999999,0.169397,-0.490745
1630678968208,-0.842349,0.16958,-0.496784
1630678968217,-0.842715,0.169885,-0.499895
1630678968227,-0.841922,0.168482,-0.502335
1630678968236,-0.840092,0.168909,-0.502091
1630678968246,-0.843447,0.17385,-0.49715
1630678968256,-0.841617,0.181719,-0.491599
1630678968265,-0.842044,0.200263,-0.482388
1630678968275,-0.847656,0.21770899999999999,-0.465979
1630678968284,-0.851316,0.222955,-0.452986
1630678968294,-0.854976,0.236436,-0.450851
1630678968304,-0.853756,0.239913,-0.453108
1630678968313,-0.852475,0.23430099999999998,-0.449204
1630678968323,-0.8538169999999999,0.22075899999999998,-0.437919
1630678968332,-0.859063,0.22136899999999998,-0.43102599999999996
1630678968342,-0.863394,0.226737,-0.433466
1630678968352,-0.868152,0.223504,-0.43127
1630678968361,-0.86986,0.226127,-0.433222
1630678968371,-0.87047,0.220332,-0.432978
1630678968380,-0.871812,0.21716,-0.42883
1630678968390,-0.875045,0.215269,-0.428464
1630678968400,-0.870287,0.210084,-0.429135
1630678968409,-0.884744,0.204899,-0.433161
1630678968419,-0.875533,0.20166599999999998,-0.41900899999999996
1630678968428,-0.8793759999999999,0.19763999999999998,-0.431209
1630678968438,-0.883158,0.200568,-0.421144
1630678968448,-0.8863909999999999,0.197274,-0.432063
1630678968457,-0.88877,0.20105599999999998,-0.429745
1630678968467,-0.890661,0.197396,-0.43188
1630678968476,-0.890966,0.196969,-0.429074
1630678968486,-0.88999,0.192882,-0.429013
1630678968496,-0.8873059999999999,0.18995399999999998,-0.429928
1630678968505,-0.8885259999999999,0.192028,-0.42883
1630678968515,-0.885964,0.195993,-0.427427
1630678968524,-0.880657,0.204289,-0.42761
1630678968534,-0.8809009999999999,0.212829,-0.424377
1630678968544,-0.8821209999999999,0.217404,-0.423218
1630678968553,-0.88206,0.22075899999999998,-0.422791
1630678968563,-0.880718,0.221003,-0.421388
1630678968572,-0.8790709999999999,0.222406,-0.418643
1630678968582,-0.875899,0.227347,-0.419863
1630678968592,-0.87535,0.231373,-0.418216
1630678968601,-0.873764,0.234667,-0.41724
1630678968611,-0.8726659999999999,0.238205,-0.41534899999999997
1630678968620,-0.873032,0.243634,-0.412177
1630678968630,-0.872239,0.244122,-0.41114
1630678968640,-0.871507,0.248087,-0.410164
1630678968649,-0.868213,0.251625,-0.40821199999999996
1630678968659,-0.864675,0.257969,-0.405284
1630678968668,-0.865712,0.265045,-0.402783
1630678968678,-0.866749,0.27266999999999997,-0.40199
1630678968688,-0.866566,0.278709,-0.39997699999999997
1630678968697,-0.865895,0.282979,-0.398452
1630678968707,-0.863211,0.283406,-0.393694
1630678968716,-0.8638819999999999,0.28731,-0.391071
1630678968726,-0.862113,0.28914,-0.390766
1630678968736,-0.8623569999999999,0.29304399999999997,-0.38978999999999997
1630678968745,-0.8565619999999999,0.291214,-0.389241
1630678968755,-0.862479,0.292251,-0.38795999999999997
1630678968764,-0.857904,0.292251,-0.387533
1630678968774,-0.856074,0.291092,-0.392474
1630678968784,-0.85644,0.28609,-0.393816
1630678968793,-0.854793,0.28529699999999997,-0.393877
1630678968803,-0.853024,0.274439,-0.400221
1630678968812,-0.856074,0.273524,-0.40016
1630678968822,-0.857843,0.280844,-0.400526
1630678968832,-0.858636,0.287493,-0.402844
1630678968841,-0.859063,0.288164,-0.400404
1630678968851,-0.859795,0.289811,-0.398696
1630678968860,-0.859246,0.29304399999999997,-0.398513
1630678968870,-0.858941,0.293593,-0.400465
1630678968880,-0.862174,0.294203,-0.402173
1630678968889,-0.8626619999999999,0.292251,-0.401441
1630678968899,-0.86437,0.290482,-0.400953
1630678968908,-0.865224,0.287249,-0.40272199999999997
1630678968918,-0.8647969999999999,0.284626,-0.403698
1630678968928,-0.863821,0.282369,-0.40382
1630678968937,-0.8632719999999999,0.280051,-0.40626
1630678968947,-0.863455,0.27999,-0.405833
1630678968956,-0.8641869999999999,0.283711,-0.405711
1630678968966,-0.863333,0.284199,-0.404979
1630678968976,-0.862601,0.284138,-0.402234
1630678968985,-0.862296,0.28499199999999997,-0.401014
1630678968995,-0.861991,0.283284,-0.39955
1630678969004,-0.861686,0.281149,-0.400709
1630678969014,-0.863028,0.277367,-0.401441
1630678969024,-0.8629669999999999,0.273341,-0.40321
1630678969033,-0.864248,0.272304,-0.404308
1630678969043,-0.865651,0.275232,-0.402905
1630678969052,-0.866383,0.275232,-0.40321
1630678969062,-0.867603,0.27694,-0.405223
1630678969072,-0.8662,0.276452,-0.40687
1630678969081,-0.865773,0.274622,-0.404918
1630678969091,-0.863211,0.273524,-0.403698
1630678969100,-0.8638819999999999,0.278953,-0.404125
1630678969110,-0.867176,0.283284,-0.406199
1630678969120,-0.867664,0.283345,-0.406748
1630678969129,-0.867054,0.280905,-0.40565
1630678969139,-0.867359,0.279136,-0.404003
1630678969148,-0.867359,0.275842,-0.40516199999999997
1630678969158,-0.865163,0.273951,-0.407114
1630678969168,-0.8651019999999999,0.274866,-0.407114
1630678969177,-0.8617469999999999,0.277245,-0.407175
1630678969187,-0.858453,0.279624,-0.40485699999999997
1630678969196,-0.855586,0.27938,-0.403088
1630678969206,-0.855159,0.280478,-0.40455199999999997
1630678969216,-0.855281,0.279258,-0.408334
1630678969225,-0.856501,0.27755,-0.410713
1630678969235,-0.856806,0.277062,-0.411323
1630678969244,-0.856501,0.279502,-0.413763
1630678969254,-0.854061,0.273707,-0.412421
1630678969264,-0.857111,0.26992499999999997,-0.40516199999999997
1630678969273,-0.860161,0.275598,-0.402234
1630678969283,-0.859734,0.275781,-0.40302699999999997
1630678969292,-0.860466,0.280295,-0.40699199999999996
1630678969302,-0.8614419999999999,0.283406,-0.407053
1630678969312,-0.8626619999999999,0.287066,-0.40455199999999997
1630678969321,-0.86132,0.288957,-0.40333199999999997
1630678969331,-0.862418,0.29402,-0.40546699999999997
1630678969340,-0.862174,0.295667,-0.413885
1630678969350,-0.856684,0.27236499999999997,-0.418765
1630678969360,-0.8596119999999999,0.269864,-0.42029
1630678969369,-0.863211,0.273951,-0.416935
1630678969379,-0.864248,0.279258,-0.41412899999999997
1630678969388,-0.863699,0.283955,-0.413458
1630678969398,-0.860588,0.28285699999999997,-0.414373
1630678969408,-0.859551,0.282308,-0.411262
1630678969417,-0.859978,0.28590699999999997,-0.390583
1630678969427,-0.85339,0.288591,-0.404979
1630678969436,-0.867725,0.295972,-0.403698
1630678969446,-0.857599,0.29548399999999997,-0.406016
1630678969456,-0.858636,0.297253,-0.407114
1630678969465,-0.864126,0.302194,-0.40546699999999997
1630678969475,-0.8623569999999999,0.30445099999999997,-0.402783
1630678969484,-0.860771,0.30378,-0.400465
1630678969494,-0.85705,0.300608,-0.398635
1630678969504,-0.857843,0.2989,-0.398696
1630678969513,-0.8620519999999999,0.29853399999999997,-0.402905
1630678969523,-0.8611369999999999,0.287188,-0.411201
1630678969532,-0.866139,0.278709,-0.411628
1630678969542,-0.86315,0.269132,-0.41534899999999997
1630678969552,-0.857355,0.259494,-0.42340099999999997
1630678969561,-0.858819,0.252723,-0.42462099999999997
1630678969571,-0.8626619999999999,0.253943,-0.423218
1630678969580,-0.8638819999999999,0.25851799999999997,-0.420412
1630678969590,-0.860405,0.26004299999999997,-0.41785
1630678969600,-0.860283,0.268339,-0.419375
1630678969609,-0.8614419999999999,0.28121,-0.420351
1630678969619,-0.858941,0.286944,-0.416813
1630678969628,-0.856623,0.295606,-0.4148
1630678969638,-0.853268,0.300913,-0.420717
1630678969648,-0.852109,0.292861,-0.419497
1630678969657,-0.848266,0.278892,-0.417667
1630678969667,-0.850035,0.281088,-0.415166
1630678969676,-0.855281,0.29212899999999997,-0.411506
1630678969686,-0.8501569999999999,0.293593,-0.410347
1630678969696,-0.850401,0.300974,-0.410957
1630678969705,-0.8492419999999999,0.30628099999999997,-0.411872
1630678969715,-0.843996,0.30866,-0.409615
1630678969724,-0.843935,0.310002,-0.40272199999999997
1630678969734,-0.846436,0.305122,-0.398757
1630678969744,-0.848571,0.302255,-0.394853
1630678969753,-0.848205,0.30561,-0.396195
1630678969763,-0.847046,0.306769,-0.396866
1630678969772,-0.84851,0.310185,-0.397232
1630678969782,-0.8479,0.30994099999999997,-0.400343
1630678969792,-0.856806,0.317566,-0.40058699999999997
1630678969801,-0.849974,0.312808,-0.40028199999999997
1630678969811,-0.847534,0.309148,-0.400221
1630678969820,-0.85339,0.311344,-0.400953
1630678969830,-0.851865,0.30073,-0.388448
1630678969840,-0.860344,0.30744,-0.417545
1630678969849,-0.8717509999999999,0.314699,-0.417362
1630678969859,-0.858209,0.298107,-0.411262
1630678969868,-0.860283,0.296582,-0.405345
1630678969878,-0.863028,0.305305,-0.402356
1630678969888,-0.8635769999999999,0.307135,-0.406748
1630678969897,-0.863455,0.302438,-0.408883
1630678969907,-0.861564,0.298595,-0.412238
1630678969916,-0.857416,0.300364,-0.412116
1630678969926,-0.8541219999999999,0.30317,-0.41107899999999997
1630678969936,-0.8513769999999999,0.302255,-0.404918
1630678969945,-0.853329,0.303292,-0.402966
1630678969955,-0.85339,0.30536599999999997,-0.406809
1630678969964,-0.854,0.302072,-0.410774
1630678969974,-0.862479,0.308355,-0.413885
1630678969984,-0.8474119999999999,0.300913,-0.410225
1630678969993,-0.846741,0.29334899999999997,-0.412787
1630678970003,-0.855586,0.300181,-0.412787
1630678970012,-0.851133,0.300364,-0.413397
1630678970022,-0.848571,0.301096,-0.417545
1630678970032,-0.851133,0.302865,-0.416325
1630678970041,-0.85156,0.302072,-0.418765
1630678970051,-0.8504619999999999,0.301706,-0.419375
1630678970060,-0.849913,0.308233,-0.42022899999999996
1630678970070,-0.84607,0.313174,-0.422425
1630678970080,-0.847351,0.312076,-0.417301
1630678970089,-0.844728,0.3111,-0.41626399999999997
1630678970099,-0.847351,0.30988,-0.415837
1630678970108,-0.846436,0.30805,-0.418216
1630678970118,-0.846009,0.307623,-0.417118
1630678970128,-0.843996,0.311832,-0.419375
1630678970137,-0.842593,0.314211,-0.419253
1630678970147,-0.840275,0.310856,-0.421876
1630678970156,-0.83814,0.300913,-0.422608
1630678970166,-0.838262,0.29456899999999997,-0.423767
1630678970176,-0.8380179999999999,0.294142,-0.421571
1630678970185,-0.839421,0.295972,-0.421754
1630678970195,-0.838689,0.296521,-0.425292
1630678970204,-0.836615,0.293715,-0.424987
1630678970214,-0.8367979999999999,0.297741,-0.428464
1630678970224,-0.837591,0.299266,-0.428708
1630678970233,-0.839299,0.300181,-0.428342
1630678970243,-0.840092,0.305244,-0.429745
1630678970252,-0.839787,0.307074,-0.431453
1630678970262,-0.839116,0.303475,-0.435479
1630678970272,-0.8389329999999999,0.298839,-0.439566
1630678970281,-0.839482,0.2928,-0.439932
1630678970291,-0.838079,0.289872,-0.438529
1630678970300,-0.8389329999999999,0.289262,-0.439932
1630678970310,-0.83997,0.291458,-0.44365299999999996
1630678970320,-0.8401529999999999,0.288469,-0.445971
1630678970329,-0.839482,0.286883,-0.451217
1630678970339,-0.839665,0.28609,-0.452071
1630678970348,-0.8392379999999999,0.28560199999999997,-0.45292499999999997
1630678970358,-0.837774,0.28438199999999997,-0.451583
1630678970368,-0.836371,0.286334,-0.454206
1630678970377,-0.838384,0.286944,-0.454633
1630678970387,-0.839787,0.286517,-0.457195
1630678970396,-0.839116,0.285236,-0.459269
1630678970406,-0.8383229999999999,0.283223,-0.459208
1630678970416,-0.837591,0.280478,-0.458354
1630678970425,-0.836432,0.278526,-0.459696
1630678970435,-0.83692,0.277184,-0.458598
1630678970444,-0.8364929999999999,0.27511,-0.456768
1630678970454,-0.8371029999999999,0.272548,-0.4575
1630678970464,-0.8357,0.276208,-0.46177
1630678970473,-0.837652,0.276452,-0.463966
1630678970483,-0.837042,0.282369,-0.463966
1630678970492,-0.836371,0.282796,-0.46299
1630678970502,-0.832955,0.278465,-0.458537
1630678970512,-0.833992,0.28133199999999997,-0.458476
1630678970521,-0.8361879999999999,0.28438199999999997,-0.459086
1630678970531,-0.834175,0.28487,-0.458537
1630678970540,-0.8319179999999999,0.290238,-0.457317
1630678970550,-0.8313079999999999,0.29639899999999997,-0.453474
1630678970560,-0.833077,0.29829,-0.449387
1630678970569,-0.833687,0.296948,-0.449448
1630678970579,-0.836066,0.293288,-0.453108
1630678970588,-0.835761,0.288286,-0.457927
1630678970598,-0.836127,0.283284,-0.46036699999999997
1630678970608,-0.8352729999999999,0.28407699999999997,-0.46189199999999997
1630678970617,-0.834846,0.282003,-0.461709
1630678970627,-0.833504,0.275232,-0.462136
1630678970636,-0.832406,0.269803,-0.462014
1630678970646,-0.8300879999999999,0.2623,-0.464271
1630678970656,-0.829295,0.25668799999999997,-0.465125
1630678970665,-0.826611,0.252235,-0.466101
1630678970675,-0.825635,0.249673,-0.467016
1630678970684,-0.8239879999999999,0.250588,-0.470127
1630678970694,-0.82228,0.256322,-0.471957
1630678970704,-0.8224629999999999,0.262178,-0.473238
1630678970713,-0.824964,0.262422,-0.47360399999999997
1630678970723,-0.82594,0.261446,-0.470493
1630678970732,-0.826672,0.258457,-0.46909
1630678970742,-0.829905,0.254492,-0.468724
1630678970752,-0.831796,0.252662,-0.468663
1630678970761,-0.834541,0.252418,-0.471713
1630678970771,-0.835639,0.249795,-0.472872
1630678970780,-0.837469,0.24888,-0.474458
1630678970790,-0.839726,0.245586,-0.474031
1630678970800,-0.841007,0.24540299999999998,-0.474885
1630678970809,-0.841068,0.24540299999999998,-0.478423
1630678970819,-0.841678,0.242414,-0.481351
1630678970828,-0.842227,0.23863199999999998,-0.478728
1630678970838,-0.842654,0.240706,-0.477691
1630678970848,-0.84424,0.242414,-0.47885
1630678970857,-0.843691,0.243024,-0.480375
1630678970867,-0.842654,0.244427,-0.478667
1630678970876,-0.844118,0.245891,-0.474153
1630678970886,-0.842898,0.24705,-0.471225
1630678970896,-0.843508,0.24820899999999999,-0.470127
1630678970905,-0.842105,0.24644,-0.468541
1630678970915,-0.840824,0.249673,-0.46738199999999996
1630678970924,-0.84058,0.253394,-0.466894
1630678970934,-0.83997,0.255773,-0.467626
1630678970944,-0.839177,0.255773,-0.467626
1630678970953,-0.83875,0.255285,-0.465918
1630678970963,-0.838994,0.257359,-0.46219699999999997
1630678970972,-0.83753,0.25882299999999997,-0.461038
1630678970982,-0.8358829999999999,0.25882299999999997,-0.459269
1630678970992,-0.8357,0.25912799999999997,-0.457866
1630678971001,-0.8352729999999999,0.260592,-0.45414499999999997
1630678971011,-0.8343579999999999,0.262483,-0.453047
1630678971020,-0.83387,0.260104,-0.453352
1630678971030,-0.836066,0.26004299999999997,-0.453596
1630678971040,-0.836554,0.25973799999999997,-0.453413
1630678971049,-0.837957,0.256932,-0.453352
1630678971059,-0.839787,0.253638,-0.455487
1630678971068,-0.841068,0.253028,-0.455426
1630678971078,-0.8404579999999999,0.25498,-0.455548
1630678971088,-0.840397,0.255956,-0.455426
1630678971097,-0.84119,0.255285,-0.454999
1630678971107,-0.84363,0.258457,-0.45536499999999996
1630678971116,-0.845765,0.259494,-0.453779
1630678971126,-0.847778,0.257847,-0.452071
1630678971136,-0.849669,0.254492,-0.451522
1630678971145,-0.851926,0.25559,-0.451034
1630678971155,-0.853573,0.255895,-0.450119
1630678971164,-0.853756,0.255529,-0.448167
1630678971174,-0.85522,0.256078,-0.442494
1630678971184,-0.855281,0.262666,-0.44151799999999997
1630678971193,-0.853939,0.267546,-0.440725
1630678971203,-0.8556469999999999,0.267302,-0.43633299999999997
1630678971212,-0.856989,0.266814,-0.434991
1630678971222,-0.855586,0.267302,-0.432612
1630678971232,-0.856135,0.268339,-0.429135
1630678971241,-0.856196,0.268461,-0.428403
1630678971251,-0.854305,0.26839999999999997,-0.429623
1630678971260,-0.853329,0.266631,-0.430843
1630678971270,-0.854976,0.266082,-0.433405
1630678971280,-0.8580869999999999,0.265777,-0.436394
1630678971289,-0.857904,0.264069,-0.437126
1630678971299,-0.859246,0.265228,-0.436089
1630678971308,-0.858148,0.262544,-0.433649
1630678971318,-0.858026,0.26156799999999997,-0.432856
1630678971328,-0.854976,0.262422,-0.432124
1630678971337,-0.853939,0.264008,-0.43066
1630678971347,-0.853146,0.265594,-0.430599
1630678971356,-0.852536,0.268766,-0.42858599999999997
1630678971366,-0.85339,0.274378,-0.42614599999999997
1630678971376,-0.8519869999999999,0.278038,-0.425658
1630678971385,-0.852963,0.280966,-0.424743
1630678971395,-0.8541219999999999,0.282186,-0.42462099999999997
1630678971404,-0.854305,0.282186,-0.42639
1630678971414,-0.854793,0.282369,-0.424865
1630678971424,-0.8550369999999999,0.28407699999999997,-0.423767
1630678971433,-0.854549,0.285236,-0.42370599999999997
1630678971443,-0.852841,0.284321,-0.422974
1630678971452,-0.851316,0.28285699999999997,-0.419436
1630678971462,-0.85339,0.285724,-0.419192
1630678971472,-0.853573,0.286883,-0.422486
1630678971481,-0.85278,0.285358,-0.42151
1630678971491,-0.851743,0.28529699999999997,-0.422181
1630678971500,-0.8513769999999999,0.288835,-0.423279
1630678971510,-0.851133,0.292251,-0.422181
1630678971520,-0.852719,0.29212899999999997,-0.421998
1630678971529,-0.851926,0.292556,-0.421998
1630678971539,-0.8522919999999999,0.289384,-0.420656
1630678971548,-0.850828,0.288347,-0.42212
1630678971558,-0.851194,0.287493,-0.420595
1630678971568,-0.85217,0.287127,-0.420656
1630678971577,-0.852841,0.287615,-0.421205
1630678971587,-0.852048,0.287737,-0.421998
1630678971596,-0.8507669999999999,0.28499199999999997,-0.421083
1630678971606,-0.85156,0.28407699999999997,-0.422852
1630678971616,-0.851804,0.28243,-0.423523
1630678971625,-0.85095,0.281759,-0.42456
1630678971635,-0.8504619999999999,0.28346699999999997,-0.423523
1630678971644,-0.851316,0.284931,-0.421998
1630678971654,-0.85095,0.288042,-0.422059
1630678971664,-0.851804,0.288103,-0.423157
1630678971673,-0.851743,0.288225,-0.425475
1630678971683,-0.852109,0.286944,-0.42761
1630678971692,-0.851316,0.285236,-0.427427
1630678971702,-0.850706,0.284016,-0.428647
1630678971712,-0.85034,0.284443,-0.427122
1630678971721,-0.8501569999999999,0.286334,-0.42675599999999997
1630678971731,-0.849303,0.286334,-0.427183
1630678971740,-0.847839,0.28560199999999997,-0.42675599999999997
1630678971750,-0.846924,0.2867,-0.424865
1630678971760,-0.8464969999999999,0.286334,-0.422608
1630678971769,-0.8468019999999999,0.285175,-0.422425
1630678971779,-0.847351,0.28426,-0.42395
1630678971788,-0.845338,0.283345,-0.426024
1630678971798,-0.846863,0.282125,-0.42675599999999997
1630678971808,-0.84607,0.281454,-0.429074
1630678971817,-0.847656,0.280844,-0.429684
1630678971827,-0.847778,0.28243,-0.432368
1630678971836,-0.8480219999999999,0.283406,-0.430233
1630678971846,-0.849913,0.28377199999999997,-0.428647
1630678971856,-0.849181,0.28487,-0.42822
1630678971865,-0.849669,0.286273,-0.425902
1630678971875,-0.848449,0.287798,-0.426878
1630678971884,-0.8498519999999999,0.287981,-0.428464
1630678971894,-0.851499,0.288042,-0.431453
1630678971904,-0.8516819999999999,0.289079,-0.433527
1630678971913,-0.853695,0.28792,-0.434442
1630678971923,-0.855525,0.284016,-0.435662
1630678971932,-0.855159,0.281576,-0.43249
1630678971942,-0.854671,0.278282,-0.43041599999999997
1630678971952,-0.85278,0.277977,-0.430599
1630678971961,-0.85034,0.276818,-0.430843
1630678971971,-0.848205,0.275659,-0.430965
1630678971980,-0.8468019999999999,0.27633,-0.429867
1630678971990,-0.845399,0.277489,-0.429379
1630678972000,-0.845765,0.279685,-0.431697
1630678972009,-0.846253,0.279685,-0.432612
1630678972019,-0.847046,0.278587,-0.433954
1630678972028,-0.845948,0.278587,-0.434686
1630678972038,-0.846253,0.279929,-0.433588
1630678972048,-0.845948,0.28163699999999997,-0.433588
1630678972057,-0.846253,0.281881,-0.432612
1630678972067,-0.846436,0.28182,-0.43194099999999996
1630678972076,-0.847168,0.282491,-0.432063
1630678972086,-0.847351,0.28194199999999997,-0.431514
1630678972096,-0.845155,0.280844,-0.433466
1630678972105,-0.843752,0.279502,-0.43102599999999996
1630678972115,-0.843386,0.28121,-0.43102599999999996
1630678972124,-0.844606,0.28011199999999997,-0.43102599999999996
1630678972134,-0.844789,0.276269,-0.432429
1630678972144,-0.843752,0.270047,-0.43755299999999997
1630678972153,-0.843569,0.261995,-0.443165
1630678972163,-0.844911,0.252174,-0.448289
1630678972172,-0.841434,0.241682,-0.451278
1630678972182,-0.838384,0.234911,-0.456219
1630678972192,-0.8357,0.224541,-0.456524
1630678972201,-0.8325279999999999,0.218197,-0.453352
1630678972211,-0.833504,0.220881,-0.450546
1630678972220,-0.827099,0.232654,-0.443104
1630678972230,-0.829417,0.26047,-0.42523099999999997
1630678972240,-0.829417,0.287859,-0.413153
1630678972249,-0.829661,0.312808,-0.409798
1630678972259,-0.826794,0.325069,-0.40607699999999997
1630678972268,-0.828441,0.334829,-0.405955
1630678972278,-0.837591,0.340258,-0.404491
1630678972288,-0.8529019999999999,0.327387,-0.414861
1630678972297,-0.86437,0.301767,-0.437065
1630678972307,-0.874374,0.276879,-0.458232
1630678972316,-0.875045,0.251076,-0.461526
1630678972326,-0.897188,0.232288,-0.479155
1630678972336,-0.8894409999999999,0.21106,-0.473482
1630678972345,-0.8960899999999999,0.20904699999999998,-0.475312
1630678972355,-0.902068,0.197823,-0.475068
1630678972364,-0.903227,0.189588,-0.46646699999999996
1630678972374,-0.905362,0.17324,-0.472506
1630678972384,-0.903776,0.163663,-0.477447
1630678972393,-0.897981,0.154635,-0.483425
1630678972403,-0.892796,0.153232,-0.48007
1630678972412,-0.891576,0.158112,-0.475922
1630678972422,-0.885842,0.165981,-0.468968
1630678972432,-0.880108,0.17854699999999998,-0.462624
1630678972441,-0.875899,0.192333,-0.45566999999999996
1630678972451,-0.869616,0.20349599999999998,-0.449387
1630678972460,-0.868823,0.216916,-0.446276
1630678972470,-0.861808,0.230092,-0.445178
1630678972480,-0.8553419999999999,0.238998,-0.444324
1630678972489,-0.847778,0.249185,-0.441396
1630678972499,-0.840824,0.259982,-0.435296
1630678972508,-0.835822,0.270962,-0.429379
1630678972518,-0.8297829999999999,0.278892,-0.422486
1630678972528,-0.827587,0.282186,-0.423767
1630678972537,-0.822097,0.28426,-0.42212
1630678972547,-0.822036,0.280905,-0.431148
1630678972556,-0.819291,0.275842,-0.438407
1630678972566,-0.815936,0.280234,-0.445422
1630678972576,-0.811666,0.28346699999999997,-0.441884
1630678972585,-0.801845,0.288042,-0.425475
1630678972595,-0.795135,0.30841599999999997,-0.40382
1630678972604,-0.79666,0.322751,-0.3843
1630678972614,-0.80032,0.323178,-0.38247
1630678972624,-0.802882,0.31537,-0.392474
1630678972633,-0.806298,0.311588,-0.41321399999999997
1630678972643,-0.809958,0.303109,-0.426512
1630678972652,-0.821853,0.295972,-0.436516
1630678972662,-0.843325,0.268827,-0.449753
1630678972672,-0.84546,0.252296,-0.45200999999999997
1630678972681,-0.860039,0.228079,-0.469578
1630678972691,-0.861808,0.216184,-0.458781
1630678972700,-0.869738,0.214232,-0.453291
1630678972710,-0.886208,0.205265,-0.456219
1630678972720,-0.894504,0.199409,-0.46585699999999997
1630678972729,-0.899323,0.189771,-0.482632
1630678972739,-0.902312,0.183122,-0.484889
1630678972748,-0.903166,0.181353,-0.486597
1630678972758,-0.903532,0.178364,-0.48739
1630678972768,-0.900543,0.178425,-0.486658
1630678972777,-0.8982249999999999,0.180133,-0.485377
1630678972787,-0.894504,0.18361,-0.48068
1630678972796,-0.891881,0.191662,-0.476593
1630678972806,-0.8830359999999999,0.198433,-0.475251
1630678972816,-0.878278,0.208986,-0.473116
1630678972825,-0.871202,0.216672,-0.47031
1630678972835,-0.861503,0.227896,-0.465308
1630678972844,-0.857294,0.240523,-0.46494199999999997
1630678972854,-0.8541219999999999,0.251137,-0.461648
1630678972864,-0.846863,0.25821299999999997,-0.457988
1630678972873,-0.83997,0.260409,-0.456768
1630678972883,-0.83448,0.263947,-0.453596
1630678972892,-0.8288679999999999,0.264984,-0.455548
1630678972902,-0.824171,0.265289,-0.455121
1630678972912,-0.819474,0.265289,-0.455914
1630678972921,-0.814838,0.263825,-0.456341
1630678972931,-0.810141,0.261141,-0.458476
1630678972940,-0.80642,0.262544,-0.457256
1630678972950,-0.806298,0.265838,-0.452864
1630678972960,-0.807945,0.268827,-0.45505999999999996
1630678972969,-0.808921,0.266936,-0.45945199999999997
1630678972979,-0.809531,0.267729,-0.465308
1630678972988,-0.808128,0.261019,-0.46890699999999996
1630678972998,-0.812642,0.253394,-0.471652
1630678973008,-0.813191,0.238998,-0.47397
1630678973017,-0.819169,0.234057,-0.479033
1630678973027,-0.815082,0.226554,-0.478728
1630678973036,-0.8282579999999999,0.21655,-0.478972
1630678973046,-0.834236,0.210816,-0.476593
1630678973056,-0.8273429999999999,0.204167,-0.487817
1630678973065,-0.842471,0.203862,-0.488915
1630678973075,-0.844179,0.198921,-0.486963
1630678973084,-0.843508,0.193492,-0.492453
1630678973094,-0.8483269999999999,0.194468,-0.492392
1630678973104,-0.8510719999999999,0.194773,-0.494466
1630678973113,-0.85156,0.193797,-0.492575
1630678973123,-0.852841,0.19428499999999999,-0.491172
1630678973132,-0.852658,0.197457,-0.492575
1630678973142,-0.854,0.202398,-0.494832
1630678973152,-0.858331,0.201422,-0.49593
1630678973161,-0.856806,0.20349599999999998,-0.49715
1630678973171,-0.856318,0.203008,-0.498126
1630678973180,-0.8568669999999999,0.20258099999999998,-0.497272
1630678973190,-0.854,0.20166599999999998,-0.49550299999999997
1630678973200,-0.8529019999999999,0.20349599999999998,-0.495381
1630678973209,-0.85156,0.203008,-0.49519799999999997
1630678973219,-0.850584,0.20679,-0.49355099999999996
1630678973228,-0.845704,0.208864,-0.492453
1630678973238,-0.8418,0.210267,-0.490257
1630678973248,-0.8395429999999999,0.213317,-0.489525
1630678973257,-0.8389329999999999,0.215269,-0.490989
1630678973267,-0.83631,0.217892,-0.492148
1630678973276,-0.8340529999999999,0.218746,-0.49288
1630678973286,-0.8322229999999999,0.217221,-0.491782
1630678973296,-0.830637,0.218258,-0.49166
1630678973305,-0.828624,0.220271,-0.493307
1630678973315,-0.82716,0.224236,-0.49202599999999996
1630678973324,-0.826367,0.22508999999999998,-0.490684
1630678973334,-0.826001,0.223809,-0.48739
1630678973344,-0.8249029999999999,0.224541,-0.485499
1630678973353,-0.824354,0.223992,-0.485438
1630678973363,-0.8233779999999999,0.22265,-0.485743
1630678973372,-0.821975,0.223138,-0.486658
1630678973382,-0.822524,0.224907,-0.489098
1630678973392,-0.823561,0.222528,-0.489952
1630678973401,-0.825696,0.220393,-0.494954
1630678973411,-0.8285629999999999,0.21984399999999998,-0.500078
1630678973420,-0.828136,0.217465,-0.501786
1630678973430,-0.830149,0.214232,-0.50142
1630678973440,-0.831186,0.212951,-0.500139
1630678973449,-0.832467,0.211609,-0.499346
1630678973459,-0.83326,0.208803,-0.499834
1630678973468,-0.832772,0.204472,-0.501603
1630678973478,-0.832467,0.202825,-0.500322
1630678973488,-0.83448,0.201178,-0.500566
1630678973497,-0.83387,0.2013,-0.501054
1630678973507,-0.834419,0.20191,-0.501481
1630678973516,-0.832406,0.205204,-0.500932
1630678973526,-0.833016,0.208498,-0.50203
1630678973536,-0.834297,0.21215799999999999,-0.503067
1630678973545,-0.8349679999999999,0.21368299999999998,-0.502884
1630678973555,-0.8364929999999999,0.214232,-0.500444
1630678973564,-0.837225,0.215086,-0.501542
1630678973574,-0.8374079999999999,0.213622,-0.500383
1630678973584,-0.836981,0.213866,-0.499651
1630678973593,-0.8377129999999999,0.215086,-0.498492
1630678973603,-0.836676,0.21655,-0.49702799999999997
1630678973612,-0.836554,0.216611,-0.494832
1630678973622,-0.8343579999999999,0.216489,-0.493124
1630678973632,-0.833504,0.218868,-0.49349
1630678973641,-0.8328329999999999,0.22228399999999998,-0.49288
1630678973651,-0.8319179999999999,0.224297,-0.493002
1630678973660,-0.830332,0.225273,-0.490745
1630678973670,-0.829356,0.225334,-0.488549
1630678973680,-0.8296,0.222894,-0.48556
1630678973689,-0.829051,0.22197899999999998,-0.483608
1630678973699,-0.826977,0.221918,-0.482937
1630678973708,-0.827465,0.223504,-0.481351
1630678973718,-0.827831,0.224968,-0.481168
1630678973728,-0.830759,0.225151,-0.482449
1630678973737,-0.83326,0.226737,-0.48739
1630678973747,-0.833809,0.22752999999999998,-0.491904
1630678973756,-0.833077,0.227469,-0.489952
1630678973766,-0.8352729999999999,0.23033599999999999,-0.48989099999999997
1630678973776,-0.835822,0.232105,-0.490257
1630678973785,-0.834724,0.23241,-0.487878
1630678973795,-0.836249,0.231739,-0.484584
1630678973804,-0.837164,0.23094599999999998,-0.486475
1630678973814,-0.838201,0.229909,-0.489037
1630678973824,-0.840946,0.228628,-0.49050099999999996
1630678973833,-0.842959,0.224602,-0.492392
1630678973843,-0.843264,0.2196,-0.49233099999999996
1630678973852,-0.841983,0.211487,-0.489342
1630678973862,-0.839909,0.20862,-0.486353
1630678973872,-0.838994,0.208559,-0.484523
1630678973881,-0.837591,0.209901,-0.483974
1630678973891,-0.836249,0.211731,-0.481839
1630678973900,-0.83509,0.214659,-0.48031399999999996
1630678973910,-0.834419,0.218075,-0.477203
1630678973920,-0.836371,0.220393,-0.4758
1630678973929,-0.8367979999999999,0.222894,-0.477203
1630678973939,-0.837896,0.224358,-0.48031399999999996
1630678973948,-0.838079,0.226066,-0.483364
1630678973958,-0.839665,0.225273,-0.48470599999999997
1630678973968,-0.841861,0.22197899999999998,-0.489342
1630678973977,-0.843386,0.221552,-0.493795
1630678973987,-0.843935,0.219783,-0.497821
1630678973996,-0.843569,0.217221,-0.499285
1630678974006,-0.843142,0.21490299999999998,-0.498004
1630678974016,-0.84302,0.214842,-0.499956
1630678974025,-0.8401529999999999,0.212646,-0.499712
1630678974035,-0.837896,0.211731,-0.496296
1630678974044,-0.837591,0.215879,-0.49641799999999997
1630678974054,-0.8358829999999999,0.216855,-0.49641799999999997
1630678974064,-0.833321,0.218075,-0.49672299999999997
1630678974073,-0.83387,0.21899,-0.495991
1630678974083,-0.833992,0.221857,-0.495747
1630678974092,-0.83326,0.223809,-0.495747
1630678974102,-0.832955,0.226066,-0.496174
1630678974112,-0.831796,0.22813999999999998,-0.49611299999999997
1630678974121,-0.830759,0.23186099999999998,-0.495747
1630678974131,-0.830637,0.236253,-0.496845
1630678974140,-0.8285629999999999,0.236985,-0.498004
1630678974150,-0.828014,0.238998,-0.496967
1630678974160,-0.82899,0.24339,-0.497272
1630678974169,-0.827404,0.24583,-0.497394
1630678974179,-0.826001,0.249002,-0.496235
1630678974188,-0.824415,0.250832,-0.494405
1630678974198,-0.8224629999999999,0.251686,-0.492758
1630678974208,-0.821121,0.25376,-0.49044
1630678974217,-0.821487,0.253943,-0.489708
1630678974227,-0.820572,0.254126,-0.488549
1630678974236,-0.819718,0.252784,-0.488854
1630678974246,-0.818193,0.252418,-0.48958599999999997
1630678974256,-0.818925,0.252357,-0.491355
1630678974265,-0.818132,0.251991,-0.49489299999999997
1630678974275,-0.818498,0.25193,-0.495686
1630678974284,-0.817583,0.250344,-0.49471
1630678974294,-0.816058,0.251686,-0.495137
1630678974304,-0.817156,0.252479,-0.49324599999999996
1630678974313,-0.81618,0.253699,-0.49172099999999996
1630678974323,-0.815082,0.251686,-0.49080599999999996
1630678974332,-0.816729,0.250222,-0.48983
1630678974342,-0.817034,0.246562,-0.490013
1630678974352,-0.818132,0.24204799999999999,-0.489342
1630678974361,-0.818925,0.23912,-0.488488
1630678974371,-0.820206,0.23863199999999998,-0.490074
1630678974380,-0.822036,0.237168,-0.490013
1630678974390,-0.823317,0.235521,-0.49105
1630678974400,-0.825574,0.234179,-0.493307
1630678974409,-0.826184,0.233752,-0.49355099999999996
1630678974419,-0.829966,0.232959,-0.49349
1630678974428,-0.8294779999999999,0.231922,-0.49324599999999996
1630678974438,-0.8303929999999999,0.23155599999999998,-0.491538
1630678974448,-0.832711,0.232593,-0.49294099999999996
1630678974457,-0.832101,0.2318,-0.492392
1630678974467,-0.833077,0.233447,-0.491477
1630678974476,-0.835029,0.234972,-0.490318
1630678974486,-0.835822,0.238266,-0.49202599999999996
1630678974496,-0.83692,0.238388,-0.495015
1630678974505,-0.839604,0.238205,-0.497516
1630678974515,-0.8401529999999999,0.233874,-0.49977299999999997
1630678974524,-0.83814,0.229299,-0.497821
1630678974534,-0.835822,0.225944,-0.494527
1630678974544,-0.835456,0.224541,-0.490867
1630678974553,-0.83509,0.22630999999999998,-0.491843
1630678974563,-0.832162,0.228262,-0.491782
1630678974572,-0.829966,0.229604,-0.491904
1630678974582,-0.829722,0.231678,-0.492392
1630678974592,-0.828746,0.232654,-0.491599
1630678974601,-0.827404,0.232898,-0.49233099999999996
1630678974611,-0.826916,0.233813,-0.492697
1630678974620,-0.827099,0.233142,-0.492514
1630678974630,-0.8264279999999999,0.232898,-0.491782
1630678974640,-0.8264279999999999,0.233325,-0.491538
1630678974649,-0.8276479999999999,0.23308099999999998,-0.49019599999999997
1630678974659,-0.828014,0.23241,-0.49141599999999996
1630678974668,-0.8279529999999999,0.233264,-0.48958599999999997
1630678974678,-0.827526,0.232959,-0.489525
1630678974688,-0.8276479999999999,0.232532,-0.490074
1630678974697,-0.829356,0.2318,-0.49202599999999996
1630678974707,-0.826794,0.23033599999999999,-0.4941
1630678974716,-0.824842,0.229238,-0.491538
1630678974726,-0.82594,0.232288,-0.491477
1630678974736,-0.826672,0.23302,-0.491782
1630678974745,-0.82716,0.23277599999999998,-0.49202599999999996
1630678974755,-0.826245,0.233203,-0.494405
1630678974764,-0.826794,0.233813,-0.493856
1630678974774,-0.8273429999999999,0.232288,-0.49489299999999997
1630678974784,-0.826367,0.228872,-0.494283
1630678974793,-0.827099,0.228018,-0.490989
1630678974803,-0.826855,0.228384,-0.488549
1630678974812,-0.827282,0.227713,-0.489464
1630678974822,-0.826245,0.228384,-0.490318
1630678974832,-0.828746,0.229116,-0.492453
1630678974841,-0.830454,0.235338,-0.494649
1630678974851,-0.837652,0.241926,-0.495991
1630678974860,-0.844484,0.242231,-0.499712
1630678974870,-0.8486319999999999,0.23832699999999998,-0.507398
1630678974880,-0.853268,0.238876,-0.510753
1630678974889,-0.858026,0.239425,-0.511912
1630678974899,-0.855098,0.236863,-0.509899
1630678974908,-0.8580869999999999,0.234667,-0.509228
1630678974918,-0.860771,0.22661499999999998,-0.512644
1630678974928,-0.8601,0.221552,-0.516548
1630678974937,-0.858026,0.22356499999999999,-0.515389
1630678974947,-0.857294,0.222589,-0.510997
1630678974956,-0.852536,0.21770899999999999,-0.504958
1630678974966,-0.848571,0.221491,-0.499956
1630678974976,-0.845338,0.23308099999999998,-0.49471
1630678974985,-0.839116,0.239486,-0.48592599999999997
1630678974995,-0.8340529999999999,0.246196,-0.47817899999999997
1630678975004,-0.828929,0.257237,-0.476837
1630678975014,-0.826611,0.271572,-0.47207899999999997
1630678975024,-0.8227679999999999,0.285053,-0.467626
1630678975033,-0.820633,0.29951,-0.467565
1630678975043,-0.817888,0.312564,-0.47153
1630678975052,-0.8164239999999999,0.322812,-0.46067199999999997
1630678975062,-0.795013,0.31829799999999997,-0.452376
1630678975072,-0.792512,0.31903,-0.44865499999999997
1630678975081,-0.794525,0.323727,-0.453047
1630678975091,-0.790316,0.324642,-0.456219
1630678975100,-0.7844599999999999,0.324459,-0.454206
1630678975110,-0.781898,0.327021,-0.449326
1630678975120,-0.779824,0.327143,-0.451217
1630678975129,-0.772138,0.32134799999999997,-0.450302
1630678975139,-0.76555,0.30994099999999997,-0.46158699999999997
1630678975148,-0.766587,0.311527,-0.468114
1630678975158,-0.776164,0.323117,-0.46848
1630678975168,-0.785497,0.33611,-0.461221
1630678975177,-0.785863,0.340441,-0.464454
1630678975187,-0.791414,0.346724,-0.471042
1630678975196,-0.796965,0.34831,-0.481107
1630678975206,-0.79727,0.34416199999999997,-0.482144
1630678975216,-0.801723,0.341661,-0.479826
1630678975225,-0.8023939999999999,0.34385699999999997,-0.47695899999999997
1630678975235,-0.806237,0.33427999999999997,-0.47787399999999997
1630678975244,-0.8017839999999999,0.32086,-0.479216
1630678975254,-0.803187,0.310673,-0.479216
1630678975264,-0.8060539999999999,0.300913,-0.487634
1630678975273,-0.80703,0.29243399999999997,-0.498065
1630678975283,-0.8115439999999999,0.287249,-0.505873
1630678975292,-0.814838,0.282735,-0.51301
1630678975302,-0.8127639999999999,0.277489,-0.51789
1630678975312,-0.811422,0.27327999999999997,-0.5179509999999999
1630678975321,-0.814838,0.27083999999999997,-0.520025
1630678975331,-0.81557,0.266204,-0.52094
1630678975340,-0.813252,0.260592,-0.520208
1630678975350,-0.8127639999999999,0.255407,-0.518805
1630678975360,-0.8142889999999999,0.251564,-0.5161209999999999
1630678975369,-0.815997,0.251625,-0.515694
1630678975379,-0.818376,0.253638,-0.522587
1630678975388,-0.817522,0.255407,-0.525088
1630678975398,-0.812215,0.254553,-0.5188659999999999
1630678975408,-0.811971,0.250222,-0.52033
1630678975417,-0.81496,0.24418299999999998,-0.526186
1630678975427,-0.814533,0.239608,-0.532591
1630678975436,-0.814716,0.238571,-0.538081
1630678975446,-0.8133739999999999,0.23802199999999998,-0.534299
1630678975456,-0.812276,0.232898,-0.533201
1630678975465,-0.814838,0.231495,-0.5401549999999999
1630678975475,-0.815082,0.222772,-0.543876
1630678975484,-0.81496,0.216489,-0.540582
1630678975494,-0.812276,0.212036,-0.537227
1630678975504,-0.810507,0.209291,-0.535397
1630678975513,-0.806786,0.204716,-0.534299
1630678975523,-0.802882,0.205265,-0.532408
1630678975532,-0.807396,0.206241,-0.528382
1630678975542,-0.809897,0.202459,-0.530761
1630678975552,-0.8112389999999999,0.194956,-0.537654
1630678975561,-0.812337,0.188002,-0.545889
1630678975571,-0.813496,0.184769,-0.549305
1630678975580,-0.815997,0.179828,-0.549976
1630678975590,-0.81557,0.174338,-0.553819
1630678975600,-0.8139839999999999,0.169519,-0.555771
1630678975609,-0.812825,0.169641,-0.557601
1630678975619,-0.81252,0.170312,-0.554124
1630678975628,-0.8113,0.17324,-0.548573
1630678975638,-0.809226,0.17568,-0.545096
1630678975648,-0.807457,0.174582,-0.543937
1630678975657,-0.806725,0.174582,-0.541497
1630678975667,-0.805627,0.175192,-0.539057
1630678975676,-0.80459,0.176839,-0.537471
1630678975686,-0.802455,0.179096,-0.535397
1630678975696,-0.8020889999999999,0.181292,-0.533079
1630678975705,-0.801723,0.187941,-0.53131
1630678975715,-0.80215,0.191113,-0.527467
1630678975724,-0.798368,0.197579,-0.526613
1630678975734,-0.797148,0.205387,-0.523075
1630678975744,-0.79849,0.209108,-0.5225259999999999
1630678975753,-0.802516,0.211914,-0.521977
1630678975763,-0.80398,0.212341,-0.522465
1630678975772,-0.8069689999999999,0.21520799999999998,-0.52033
1630678975782,-0.806237,0.218563,-0.517707
1630678975792,-0.808311,0.216977,-0.514169
1630678975801,-0.81252,0.215025,-0.5130709999999999
1630678975811,-0.820206,0.213256,-0.516548
1630678975820,-0.8255129999999999,0.207644,-0.523624
1630678975830,-0.830637,0.20252,-0.528992
1630678975840,-0.831674,0.196847,-0.532774
1630678975849,-0.833565,0.189832,-0.533567
1630678975859,-0.834541,0.187514,-0.535702
1630678975868,-0.835395,0.183854,-0.537349
1630678975878,-0.833931,0.185501,-0.535397
1630678975888,-0.8316129999999999,0.18483,-0.532957
1630678975897,-0.831674,0.187636,-0.53131
1630678975907,-0.832101,0.191601,-0.531432
1630678975916,-0.833016,0.195993,-0.533018
1630678975926,-0.830576,0.200568,-0.53436
1630678975936,-0.830027,0.203618,-0.533506
1630678975945,-0.82838,0.205631,-0.531615
1630678975955,-0.8276479999999999,0.205143,-0.529785
1630678975964,-0.82594,0.207888,-0.531554
1630678975974,-0.823805,0.207583,-0.531615
1630678975984,-0.821304,0.2074,-0.531554
1630678975993,-0.817034,0.20904699999999998,-0.531188
1630678976003,-0.815692,0.207766,-0.530151
1630678976012,-0.814533,0.205631,-0.529297
1630678976022,-0.8148989999999999,0.205326,-0.530517
1630678976032,-0.816607,0.204411,-0.53192
1630678976041,-0.814106,0.202398,-0.535275
1630678976051,-0.8136789999999999,0.198799,-0.536068
1630678976060,-0.810507,0.198372,-0.5364949999999999
1630678976070,-0.808921,0.19794499999999998,-0.537837
1630678976080,-0.807152,0.198738,-0.537532
1630678976089,-0.8069689999999999,0.19794499999999998,-0.5371049999999999
1630678976099,-0.80703,0.194651,-0.536678
1630678976108,-0.8075789999999999,0.193492,-0.538447
1630678976118,-0.808738,0.190625,-0.538752
1630678976128,-0.807396,0.190015,-0.537471
1630678976137,-0.805993,0.18934399999999998,-0.535946
1630678976147,-0.8051389999999999,0.19154,-0.536617
1630678976156,-0.8048339999999999,0.191906,-0.536739
1630678976166,-0.803736,0.192699,-0.535275
1630678976176,-0.803858,0.193431,-0.535702
1630678976185,-0.80337,0.191845,-0.535946
1630678976195,-0.802638,0.191418,-0.536068
1630678976204,-0.802333,0.18995399999999998,-0.538081
1630678976214,-0.802516,0.191113,-0.538813
1630678976224,-0.804651,0.190808,-0.540582
1630678976233,-0.80398,0.189466,-0.540826
1630678976243,-0.803858,0.18781899999999999,-0.537044
1630678976252,-0.802638,0.18995399999999998,-0.5371049999999999
1630678976262,-0.8054439999999999,0.191845,-0.538508
1630678976272,-0.807701,0.191723,-0.5392399999999999
1630678976281,-0.808738,0.192882,-0.5398499999999999
1630678976291,-0.8087989999999999,0.19397999999999999,-0.5367999999999999
1630678976300,-0.811178,0.196176,-0.535275
1630678976310,-0.813862,0.19489499999999998,-0.538813
1630678976320,-0.816729,0.192394,-0.542961
1630678976329,-0.819169,0.19147899999999998,-0.544974
1630678976339,-0.820633,0.18903899999999998,-0.545767
1630678976348,-0.82289,0.184891,-0.544242
1630678976358,-0.823866,0.183976,-0.544242
1630678976368,-0.822951,0.18226799999999999,-0.544913
1630678976377,-0.824354,0.184281,-0.5438149999999999
1630678976387,-0.8239879999999999,0.18501299999999998,-0.542412
1630678976396,-0.821792,0.186782,-0.541863
1630678976406,-0.821243,0.1891,-0.539911
1630678976416,-0.820999,0.191418,-0.535824
1630678976425,-0.820328,0.192638,-0.53497
1630678976435,-0.820511,0.195566,-0.533689
1630678976444,-0.819169,0.197091,-0.532469
1630678976454,-0.8174,0.200568,-0.530212
1630678976464,-0.81862,0.202947,-0.528565
1630678976473,-0.81679,0.205875,-0.52826
1630678976483,-0.815387,0.208864,-0.527955
1630678976492,-0.814228,0.209718,-0.52643
1630678976502,-0.813313,0.212219,-0.526369
1630678976512,-0.811788,0.213256,-0.524661
1630678976521,-0.8094089999999999,0.21594,-0.523868
1630678976531,-0.808982,0.219966,-0.521977
1630678976540,-0.807213,0.221613,-0.51972
1630678976550,-0.8057489999999999,0.223626,-0.5191709999999999
1630678976560,-0.803675,0.224053,-0.517707
1630678976569,-0.803126,0.227408,-0.515938
1630678976579,-0.800808,0.22936,-0.515084
1630678976588,-0.800442,0.230153,-0.511546
1630678976598,-0.801296,0.23125099999999998,-0.513254
1630678976608,-0.8026989999999999,0.230519,-0.517097
1630678976617,-0.802821,0.226249,-0.518988
1630678976627,-0.804956,0.222101,-0.519537
1630678976636,-0.808006,0.21594,-0.52033
1630678976646,-0.8118489999999999,0.21411,-0.522648
1630678976656,-0.814533,0.209901,-0.53009
1630678976665,-0.817766,0.205448,-0.535031
1630678976675,-0.818986,0.202764,-0.538081
1630678976684,-0.820694,0.196359,-0.537349
1630678976694,-0.822036,0.192577,-0.538569
1630678976704,-0.823012,0.18934399999999998,-0.538386
1630678976713,-0.825025,0.188185,-0.537593
1630678976723,-0.827526,0.19025899999999998,-0.541741
1630678976732,-0.8270379999999999,0.187697,-0.539057
1630678976742,-0.825696,0.18666,-0.53436
1630678976752,-0.826184,0.188673,-0.534604
1630678976761,-0.827099,0.192882,-0.537898
1630678976771,-0.828502,0.195078,-0.5407649999999999
1630678976780,-0.829539,0.19702999999999998,-0.541314
1630678976790,-0.8285629999999999,0.196786,-0.542534
1630678976800,-0.82716,0.19519999999999998,-0.539179
1630678976809,-0.824842,0.195017,-0.536129
1630678976819,-0.824354,0.195749,-0.53314
1630678976828,-0.82289,0.20008,-0.530944
1630678976838,-0.819535,0.20349599999999998,-0.52887
1630678976848,-0.81496,0.204838,-0.525271
1630678976857,-0.81374,0.207461,-0.5237459999999999
1630678976867,-0.810507,0.210572,-0.522648
1630678976876,-0.807213,0.214842,-0.5225259999999999
1630678976886,-0.805261,0.22167399999999998,-0.52216
1630678976896,-0.802821,0.227286,-0.520025
1630678976905,-0.80032,0.22265,-0.519659
1630678976915,-0.8008689999999999,0.22417499999999999,-0.5194759999999999
1630678976924,-0.801235,0.221186,-0.519415
1630678976934,-0.80154,0.22021,-0.517158
1630678976944,-0.803431,0.219112,-0.518134
1630678976953,-0.804102,0.220637,-0.520635
1630678976963,-0.804285,0.22228399999999998,-0.521245
1630678976972,-0.804651,0.220332,-0.521794
1630678976982,-0.807152,0.213317,-0.519537
1630678976992,-0.8112389999999999,0.21777,-0.510204
1630678977001,-0.8033089999999999,0.212341,-0.512644
1630678977011,-0.817949,0.21892899999999998,-0.533445
1630678977020,-0.817339,0.227103,-0.534055
1630678977030,-0.813496,0.22417499999999999,-0.5219159999999999
1630678977040,-0.814655,0.226798,-0.519049
1630678977049,-0.81374,0.22417499999999999,-0.522892
1630678977059,-0.816607,0.215452,-0.522343
1630678977068,-0.816546,0.21276799999999998,-0.526674
1630678977078,-0.812947,0.210572,-0.530212
1630678977088,-0.818315,0.20313,-0.5185
1630678977097,-0.825086,0.201178,-0.51972
1630678977107,-0.818986,0.196664,-0.514108
1630678977116,-0.82411,0.196542,-0.525881
1630678977126,-0.8337479999999999,0.208193,-0.533323
1630678977136,-0.824964,0.205143,-0.526735
1630678977145,-0.828075,0.20801,-0.52216
1630678977155,-0.830027,0.216794,-0.521794
1630678977164,-0.828075,0.220088,-0.524417
1630678977174,-0.827526,0.221125,-0.52216
1630678977184,-0.827526,0.223504,-0.518988
1630678977193,-0.824964,0.22356499999999999,-0.517463
1630678977203,-0.824842,0.224419,-0.518683
1630678977212,-0.8245979999999999,0.224419,-0.519964
1630678977222,-0.823622,0.225578,-0.5188659999999999
1630678977232,-0.821243,0.226859,-0.516365
1630678977241,-0.820267,0.227347,-0.51362
1630678977251,-0.817583,0.226859,-0.5127659999999999
1630678977260,-0.817522,0.227591,-0.5130709999999999
1630678977270,-0.8155089999999999,0.23003099999999999,-0.51301
1630678977280,-0.815997,0.235765,-0.516182
1630678977289,-0.81435,0.23973,-0.505385
1630678977299,-0.807091,0.236436,-0.510448
1630678977308,-0.812642,0.235399,-0.509716
1630678977318,-0.8127639999999999,0.235399,-0.512583
1630678977328,-0.810751,0.230824,-0.515938
1630678977337,-0.8054439999999999,0.215086,-0.488244
1630678977347,-0.815082,0.221796,-0.53375
1630678977356,-0.819169,0.22386999999999999,-0.537166
1630678977366,-0.803858,0.21899,-0.514474
1630678977376,-0.80581,0.221186,-0.508374
1630678977385,-0.8100189999999999,0.225639,-0.511546
1630678977395,-0.810507,0.227774,-0.518744
1630678977404,-0.809836,0.22508999999999998,-0.515938
1630678977414,-0.813313,0.22447999999999999,-0.509655
1630678977424,-0.813252,0.224968,-0.511058
1630678977433,-0.813008,0.223626,-0.513193
1630678977443,-0.816302,0.221613,-0.51179
1630678977452,-0.817156,0.219661,-0.511302
1630678977462,-0.817522,0.218136,-0.5127659999999999
1630678977472,-0.818925,0.217221,-0.514413
1630678977481,-0.82106,0.21520799999999998,-0.5124
1630678977491,-0.820145,0.213561,-0.513559
1630678977500,-0.819413,0.20862,-0.51301
1630678977510,-0.820511,0.2074,-0.515633
1630678977520,-0.820572,0.208376,-0.515694
1630678977529,-0.817583,0.209169,-0.513925
1630678977539,-0.818681,0.20721699999999998,-0.51118
1630678977548,-0.821792,0.211487,-0.5152059999999999
1630678977558,-0.823317,0.211609,-0.519659
1630678977568,-0.824049,0.209535,-0.522648
1630678977577,-0.826794,0.20191,-0.528382
1630678977587,-0.828197,0.200629,-0.524966
1630678977596,-0.830271,0.20410599999999998,-0.516243
1630678977606,-0.832406,0.201422,-0.512949
1630678977616,-0.831491,0.19947,-0.512949
1630678977625,-0.8316129999999999,0.199104,-0.5127659999999999
1630678977635,-0.83265,0.198799,-0.51301
1630678977644,-0.831125,0.20014099999999999,-0.5142909999999999
1630678977654,-0.830027,0.198433,-0.518195
1630678977664,-0.829417,0.194956,-0.5176459999999999
1630678977673,-0.829844,0.195566,-0.516792
1630678977683,-0.829661,0.195444,-0.51667
1630678977692,-0.829051,0.194468,-0.5149009999999999
1630678977702,-0.829234,0.193919,-0.5136809999999999
1630678977712,-0.8300879999999999,0.197396,-0.512278
1630678977721,-0.8303929999999999,0.200873,-0.505202
1630678977731,-0.8152039999999999,0.198433,-0.49233099999999996
1630678977740,-0.835639,0.205082,-0.511119
1630678977750,-0.840946,0.207949,-0.510875
1630678977760,-0.827404,0.204289,-0.499712
1630678977769,-0.831369,0.204838,-0.496479
1630678977779,-0.833809,0.20752199999999998,-0.501664
1630678977788,-0.828319,0.208498,-0.50325
1630678977798,-0.828685,0.209535,-0.494954
1630678977808,-0.831552,0.21228,-0.493368
1630678977817,-0.831857,0.212402,-0.49733299999999997
1630678977827,-0.831674,0.21154799999999999,-0.502762
1630678977836,-0.833687,0.209596,-0.506239
1630678977846,-0.834846,0.210511,-0.509045
1630678977856,-0.832406,0.205265,-0.509777
1630678977865,-0.831064,0.201239,-0.509472
1630678977875,-0.83265,0.200263,-0.506361
1630678977884,-0.831796,0.199104,-0.504165
1630678977894,-0.832101,0.195078,-0.503982
1630678977904,-0.832894,0.195566,-0.503067
1630678977913,-0.834724,0.200263,-0.503433
1630678977923,-0.834114,0.202398,-0.504104
1630678977932,-0.835212,0.204777,-0.505751
1630678977942,-0.836005,0.207705,-0.506422
1630678977952,-0.836371,0.20752199999999998,-0.505751
1630678977961,-0.835395,0.20569199999999999,-0.504043
1630678977971,-0.8294779999999999,0.206119,-0.509594
1630678977980,-0.835761,0.198494,-0.495747
1630678977990,-0.831491,0.20191,-0.504104
1630678978000,-0.838506,0.20380099999999998,-0.507825
1630678978009,-0.835334,0.20288599999999998,-0.505324
1630678978019,-0.832284,0.203679,-0.502884
1630678978028,-0.8337479999999999,0.205143,-0.502396
1630678978038,-0.835395,0.210572,-0.501237
1630678978048,-0.833504,0.211609,-0.49898
1630678978057,-0.833504,0.2135,-0.495076
1630678978067,-0.831735,0.211426,-0.49593
1630678978076,-0.8303929999999999,0.20843699999999998,-0.49593
1630678978086,-0.830637,0.207705,-0.494039
1630678978096,-0.8297829999999999,0.207278,-0.4941
1630678978105,-0.828014,0.208559,-0.495564
1630678978115,-0.828441,0.20801,-0.498736
1630678978124,-0.8285629999999999,0.207278,-0.498797
1630678978134,-0.828685,0.208498,-0.49916299999999997
1630678978144,-0.830454,0.208803,-0.49959
1630678978153,-0.829417,0.20923,-0.502457
1630678978163,-0.8273429999999999,0.200385,-0.506117
1630678978172,-0.8300879999999999,0.194529,-0.504714
1630678978182,-0.83082,0.195261,-0.504714
1630678978192,-0.831735,0.196298,-0.502274
1630678978201,-0.8310029999999999,0.19947,-0.498126
1630678978211,-0.832345,0.200263,-0.497394
1630678978220,-0.83448,0.201422,-0.49885799999999997
1630678978230,-0.835761,0.200629,-0.501786
1630678978240,-0.836127,0.20014099999999999,-0.504226
1630678978249,-0.8367979999999999,0.200934,-0.50386
1630678978259,-0.836554,0.198982,-0.504104
1630678978268,-0.836554,0.198677,-0.500444
1630678978278,-0.838811,0.200385,-0.500017
1630678978288,-0.8389329999999999,0.200202,-0.500627
1630678978297,-0.8367979999999999,0.20014099999999999,-0.501115
1630678978307,-0.837225,0.202764,-0.501054
1630678978316,-0.837469,0.207949,-0.499651
1630678978326,-0.835212,0.207644,-0.494283
1630678978336,-0.814045,0.18964899999999998,-0.48617
1630678978345,-0.848693,0.20862,-0.509289
1630678978355,-0.840214,0.209901,-0.507642
1630678978364,-0.826367,0.20349599999999998,-0.486963
1630678978374,-0.833504,0.204228,-0.482998
1630678978384,-0.834297,0.210877,-0.488122
1630678978393,-0.833016,0.210328,-0.48867099999999997
1630678978403,-0.832711,0.205021,-0.483303
1630678978412,-0.83509,0.207034,-0.47726399999999997
1630678978422,-0.832406,0.210084,-0.480863
1630678978432,-0.831735,0.209718,-0.476471
1630678978441,-0.832467,0.21106,-0.477447
1630678978451,-0.836676,0.210206,-0.475373
1630678978460,-0.839665,0.21411,-0.474641
1630678978470,-0.839787,0.21459799999999998,-0.471408
1630678978480,-0.838079,0.213195,-0.469395
1630678978489,-0.84058,0.212829,-0.46646699999999996
1630678978499,-0.843508,0.215452,-0.469456
1630678978508,-0.845948,0.212524,-0.473177
1630678978518,-0.84851,0.207949,-0.475373
1630678978528,-0.849486,0.20258099999999998,-0.47702
1630678978537,-0.853268,0.197884,-0.47543399999999997
1630678978547,-0.8541219999999999,0.194529,-0.475556
1630678978556,-0.852719,0.190198,-0.472628
1630678978566,-0.856379,0.191235,-0.467504
1630678978576,-0.859368,0.189466,-0.467626
1630678978585,-0.860954,0.184525,-0.466894
1630678978595,-0.861076,0.180194,-0.46921199999999996
1630678978604,-0.865224,0.181353,-0.47268899999999997
1630678978614,-0.866688,0.182329,-0.47397
1630678978624,-0.86864,0.18178,-0.471286
1630678978633,-0.868457,0.185562,-0.47031
1630678978643,-0.869616,0.187148,-0.468358
1630678978652,-0.870348,0.188307,-0.466101
1630678978662,-0.872544,0.186904,-0.46097699999999997
1630678978672,-0.874008,0.187392,-0.46280699999999997
1630678978681,-0.875594,0.190198,-0.465674
1630678978691,-0.87962,0.194346,-0.466345
1630678978700,-0.878278,0.195261,-0.46707699999999996
1630678978710,-0.877485,0.191052,-0.466101
1630678978720,-0.87596,0.18605,-0.467199
1630678978729,-0.874618,0.183671,-0.467138
1630678978739,-0.874008,0.182512,-0.462746
1630678978748,-0.87291,0.18812399999999999,-0.46055
1630678978758,-0.868762,0.187758,-0.460428
1630678978768,-0.865285,0.191113,-0.457073
1630678978777,-0.862723,0.19825,-0.454572
1630678978787,-0.860344,0.204594,-0.45078999999999997
1630678978796,-0.856379,0.210877,-0.44591
1630678978806,-0.854366,0.217892,-0.441396
1630678978816,-0.85339,0.223077,-0.438651
1630678978825,-0.851804,0.225761,-0.438102
1630678978835,-0.850523,0.230275,-0.43694299999999997
1630678978844,-0.851133,0.23802199999999998,-0.433466
1630678978854,-0.851255,0.24143799999999999,-0.428159
1630678978864,-0.8501569999999999,0.241804,-0.428464
1630678978873,-0.85156,0.23973,-0.430904
1630678978883,-0.8516819999999999,0.23649699999999999,-0.436272
1630678978892,-0.8513769999999999,0.23369099999999998,-0.43877299999999997
1630678978902,-0.8522919999999999,0.23033599999999999,-0.443226
1630678978912,-0.852109,0.227896,-0.445056
1630678978921,-0.853878,0.22539499999999998,-0.449448
1630678978931,-0.85583,0.223687,-0.451583
1630678978940,-0.856196,0.223504,-0.453718
1630678978950,-0.856196,0.222894,-0.45505999999999996
1630678978960,-0.8562569999999999,0.220515,-0.456341
1630678978969,-0.8544269999999999,0.21831899999999999,-0.455609
1630678978979,-0.855891,0.216916,-0.456158
1630678978988,-0.855464,0.216367,-0.457744
1630678978998,-0.855769,0.213195,-0.461343
1630678979008,-0.856684,0.213012,-0.46341699999999997
1630678979017,-0.854915,0.210145,-0.464881
1630678979027,-0.855586,0.210145,-0.46494199999999997
1630678979036,-0.856013,0.212402,-0.466711
1630678979046,-0.8535119999999999,0.21154799999999999,-0.464881
1630678979056,-0.85339,0.210206,-0.46738199999999996
1630678979065,-0.854,0.209169,-0.46829699999999996
1630678979075,-0.852414,0.208925,-0.467809
1630678979084,-0.853085,0.21154799999999999,-0.468053
1630678979094,-0.8522919999999999,0.213866,-0.468236
1630678979104,-0.8532069999999999,0.215879,-0.46848
1630678979113,-0.853085,0.215025,-0.4697
1630678979123,-0.852536,0.21228,-0.470127
1630678979132,-0.851133,0.209779,-0.471957
1630678979142,-0.8504619999999999,0.210023,-0.472445
1630678979152,-0.8492419999999999,0.207461,-0.47085899999999997
1630678979161,-0.848571,0.205204,-0.469822
1630678979171,-0.849059,0.205204,-0.469639
1630678979180,-0.846558,0.205021,-0.470798
1630678979190,-0.84546,0.204228,-0.4697
1630678979200,-0.845216,0.204777,-0.469395
1630678979209,-0.844057,0.20496,-0.471042
1630678979219,-0.843752,0.205448,-0.472323
1630678979228,-0.843325,0.206119,-0.474763
1630678979238,-0.843264,0.205814,-0.47519
1630678979248,-0.842898,0.20752199999999998,-0.474763
1630678979257,-0.843874,0.20782699999999998,-0.476532
1630678979267,-0.844545,0.206485,-0.475678
1630678979276,-0.844667,0.207156,-0.476471
1630678979286,-0.845399,0.205753,-0.47695899999999997
1630678979296,-0.845399,0.205387,-0.477081
1630678979305,-0.844484,0.203679,-0.478606
1630678979315,-0.843874,0.201117,-0.479338
1630678979324,-0.842959,0.199897,-0.479948
1630678979334,-0.841434,0.200934,-0.47885
1630678979344,-0.841556,0.20197099999999998,-0.479277
1630678979353,-0.842044,0.202032,-0.482144
1630678979363,-0.8418,0.199592,-0.482754
1630678979372,-0.840824,0.194651,-0.48495
1630678979382,-0.840824,0.18971,-0.48989099999999997
1630678979392,-0.842288,0.183976,-0.493429
1630678979401,-0.842166,0.18440299999999998,-0.496479
1630678979411,-0.844057,0.186294,-0.49324599999999996
1630678979420,-0.844423,0.189527,-0.493124
1630678979430,-0.846924,0.193797,-0.49202599999999996
1630678979440,-0.845948,0.19489499999999998,-0.491294
1630678979449,-0.845704,0.20288599999999998,-0.481534
1630678979459,-0.847595,0.211304,-0.477325
1630678979468,-0.845094,0.214232,-0.47451899999999997
1630678979478,-0.847351,0.212585,-0.47634899999999997
1630678979488,-0.848266,0.209901,-0.486109
1630678979497,-0.851926,0.205631,-0.497516
1630678979507,-0.85278,0.200263,-0.505324
1630678979516,-0.8529019999999999,0.200202,-0.507886
1630678979526,-0.8541219999999999,0.197762,-0.503677
1630678979536,-0.85644,0.19154,-0.50264
1630678979545,-0.857416,0.189527,-0.506117
1630678979555,-0.856196,0.185806,-0.50935
1630678979564,-0.853634,0.18117,-0.512583
1630678979574,-0.85217,0.182207,-0.511973
1630678979584,-0.8513769999999999,0.184037,-0.510692
1630678979593,-0.8495469999999999,0.186172,-0.509411
1630678979603,-0.846131,0.18873399999999999,-0.504836
1630678979612,-0.844545,0.191235,-0.50081
1630678979622,-0.842715,0.195017,-0.499956
1630678979632,-0.837591,0.198982,-0.500871
1630678979641,-0.832772,0.20380099999999998,-0.501237
1630678979651,-0.828502,0.210755,-0.499041
1630678979660,-0.8258179999999999,0.217465,-0.49672299999999997
1630678979670,-0.82411,0.22106399999999998,-0.494771
1630678979680,-0.8227679999999999,0.223931,-0.494344
1630678979689,-0.820206,0.227896,-0.49471
1630678979699,-0.817217,0.23277599999999998,-0.494344
1630678979708,-0.813435,0.236436,-0.493002
1630678979718,-0.8087989999999999,0.238266,-0.490013
1630678979728,-0.8036139999999999,0.240279,-0.486963
1630678979737,-0.801113,0.242597,-0.484889
1630678979747,-0.800686,0.24235299999999999,-0.48531599999999997
1630678979756,-0.803126,0.242536,-0.48592599999999997
1630678979766,-0.80642,0.24827,-0.487817
1630678979776,-0.805871,0.254187,-0.489098
1630678979785,-0.80093,0.255895,-0.488915
1630678979795,-0.804346,0.257359,-0.489464
1630678979804,-0.798917,0.259982,-0.487024
1630678979814,-0.798307,0.26126299999999997,-0.48348599999999997
1630678979824,-0.804346,0.259189,-0.486414
1630678979833,-0.8066639999999999,0.25821299999999997,-0.49227
1630678979843,-0.807457,0.258762,-0.491172
1630678979852,-0.80703,0.25668799999999997,-0.487878
1630678979862,-0.809958,0.258091,-0.484462
1630678979872,-0.8164239999999999,0.25699299999999997,-0.48806099999999997
1630678979881,-0.820633,0.253516,-0.497516
1630678979891,-0.825696,0.244854,-0.508923
1630678979900,-0.83021,0.232837,-0.5188659999999999
1630678979910,-0.833199,0.22228399999999998,-0.525759
1630678979920,-0.833077,0.211121,-0.526308
1630678979929,-0.836127,0.203679,-0.526308
1630678979939,-0.8361879999999999,0.198799,-0.52765
1630678979948,-0.834907,0.19550499999999998,-0.526979
1630678979958,-0.83204,0.192638,-0.525454
1630678979968,-0.8322229999999999,0.19093,-0.525942
1630678979977,-0.83448,0.190991,-0.528626
1630678979987,-0.8343579999999999,0.189466,-0.531432
1630678979996,-0.8337479999999999,0.189893,-0.532591
1630678980006,-0.835944,0.191723,-0.53314
1630678980016,-0.835029,0.192943,-0.535214
1630678980025,-0.834236,0.19397999999999999,-0.533689
1630678980035,-0.832711,0.194468,-0.532835
1630678980044,-0.829905,0.196176,-0.531554
1630678980054,-0.8279529999999999,0.200202,-0.531249
1630678980064,-0.826245,0.20349599999999998,-0.528931
1630678980073,-0.8236829999999999,0.205631,-0.526613
1630678980083,-0.820023,0.209596,-0.528138
1630678980092,-0.81435,0.20862,-0.523502
1630678980102,-0.808616,0.206058,-0.520452
1630678980112,-0.8066639999999999,0.20599699999999999,-0.519659
1630678980121,-0.8060539999999999,0.204472,-0.519293
1630678980131,-0.80459,0.203069,-0.5173409999999999
1630678980140,-0.803858,0.204533,-0.516243
1630678980150,-0.8063589999999999,0.207339,-0.51911
1630678980160,-0.805932,0.204838,-0.519659
1630678980169,-0.8045289999999999,0.2013,-0.519598
1630678980179,-0.802577,0.198311,-0.520513
1630678980188,-0.803797,0.193919,-0.5191709999999999
1630678980198,-0.8045289999999999,0.188673,-0.5170359999999999
1630678980208,-0.803797,0.182939,-0.516548
1630678980217,-0.809043,0.18409799999999998,-0.5161209999999999
1630678980227,-0.811971,0.185745,-0.5164259999999999
1630678980236,-0.815082,0.184281,-0.51362
1630678980246,-0.817095,0.18842899999999999,-0.516548
1630678980256,-0.819352,0.18440299999999998,-0.518378
1630678980265,-0.822097,0.183671,-0.51423
1630678980275,-0.824232,0.18531799999999998,-0.511973
1630678980284,-0.827465,0.18964899999999998,-0.508984
1630678980294,-0.8288679999999999,0.189161,-0.507032
1630678980304,-0.833992,0.190686,-0.505812
1630678980313,-0.837957,0.18964899999999998,-0.50569
1630678980323,-0.842227,0.191906,-0.503128
1630678980332,-0.84607,0.195322,-0.499651
1630678980342,-0.847961,0.199043,-0.49776
1630678980352,-0.848693,0.203069,-0.496174
1630678980361,-0.848449,0.20813199999999998,-0.492392
1630678980371,-0.849303,0.20813199999999998,-0.487634
1630678980380,-0.850889,0.209474,-0.481839
1630678980390,-0.852231,0.208864,-0.48092399999999996
1630678980400,-0.851133,0.208925,-0.48061899999999996
1630678980409,-0.85156,0.209535,-0.47946
1630678980419,-0.850401,0.207705,-0.478301
1630678980428,-0.85217,0.20782699999999998,-0.478728
1630678980438,-0.8544269999999999,0.215147,-0.47878899999999996
1630678980448,-0.853756,0.218441,-0.479155
1630678980457,-0.854671,0.216611,-0.474702
1630678980467,-0.855586,0.22143,-0.468175
1630678980476,-0.8580869999999999,0.227347,-0.466528
1630678980486,-0.857904,0.229177,-0.467443
1630678980496,-0.867786,0.241133,-0.466894
1630678980505,-0.858636,0.244854,-0.45597499999999996
1630678980515,-0.847595,0.235216,-0.453108
1630678980524,-0.856379,0.232654,-0.456768
1630678980534,-0.857843,0.232532,-0.463051
1630678980544,-0.857111,0.23247099999999998,-0.461953
1630678980553,-0.855586,0.234484,-0.459574
1630678980563,-0.842471,0.222894,-0.446581
1630678980572,-0.862113,0.24034,-0.470737
1630678980582,-0.865224,0.252906,-0.468846
1630678980592,-0.847046,0.243695,-0.448594
1630678980601,-0.849425,0.241987,-0.440725
1630678980611,-0.849608,0.249307,-0.441945
1630678980620,-0.846314,0.245281,-0.442799
1630678980630,-0.845948,0.241926,-0.439871
1630678980640,-0.847595,0.24278,-0.436699
1630678980649,-0.846558,0.242536,-0.44469
1630678980659,-0.85095,0.241682,-0.446154
1630678980668,-0.847839,0.240706,-0.446337
1630678980678,-0.85095,0.241133,-0.44334799999999996
1630678980688,-0.846314,0.24095,-0.445361
1630678980697,-0.849669,0.240218,-0.442311
1630678980707,-0.849608,0.241926,-0.44334799999999996
1630678980716,-0.852231,0.239425,-0.441396
1630678980726,-0.8538169999999999,0.23893699999999998,-0.443592
1630678980736,-0.8550369999999999,0.239669,-0.44103
1630678980745,-0.855525,0.23973,-0.441335
1630678980755,-0.8541219999999999,0.241072,-0.44103
1630678980764,-0.852841,0.242597,-0.441335
1630678980774,-0.854244,0.244366,-0.44151799999999997
1630678980784,-0.850523,0.239974,-0.44042
1630678980793,-0.852658,0.23924199999999998,-0.443287
1630678980803,-0.854671,0.23924199999999998,-0.446154
1630678980812,-0.853329,0.235338,-0.44469
1630678980822,-0.853573,0.23607,-0.444629
1630678980832,-0.855159,0.236314,-0.446032
1630678980841,-0.855403,0.234911,-0.445422
1630678980851,-0.8562569999999999,0.235948,-0.445666
1630678980860,-0.856745,0.235826,-0.443287
1630678980870,-0.8580869999999999,0.236985,-0.443287
1630678980880,-0.85827,0.234423,-0.442311
1630678980889,-0.857721,0.23558199999999999,-0.442006
1630678980899,-0.85888,0.235338,-0.443836
1630678980908,-0.859185,0.234972,-0.445056
1630678980918,-0.859734,0.237046,-0.444019
1630678980928,-0.8596119999999999,0.238693,-0.44408
1630678980937,-0.861381,0.238754,-0.445178
1630678980947,-0.8617469999999999,0.237656,-0.444934
1630678980956,-0.8626619999999999,0.237168,-0.443897
1630678980966,-0.863394,0.23802199999999998,-0.444873
1630678980976,-0.861808,0.23668,-0.445422
1630678980985,-0.860466,0.237839,-0.447862
1630678980995,-0.8617469999999999,0.240523,-0.448106
1630678981004,-0.860588,0.241865,-0.446337
1630678981014,-0.858941,0.243695,-0.445727
1630678981024,-0.8586969999999999,0.244366,-0.444812
1630678981033,-0.857965,0.245647,-0.443714
1630678981043,-0.856684,0.245159,-0.44182299999999997
1630678981052,-0.856013,0.245647,-0.441579
1630678981062,-0.855159,0.24540299999999998,-0.442372
1630678981072,-0.854244,0.245342,-0.443104
1630678981081,-0.853939,0.244061,-0.444934
1630678981091,-0.851621,0.241133,-0.447252
1630678981100,-0.851255,0.24034,-0.446459
1630678981110,-0.850889,0.241133,-0.44682499999999997
1630678981120,-0.8501569999999999,0.241499,-0.447862
1630678981129,-0.850523,0.24095,-0.448716
1630678981139,-0.851743,0.239425,-0.449326
1630678981148,-0.8510719999999999,0.239974,-0.448411
1630678981158,-0.8510719999999999,0.240645,-0.44956999999999997
1630678981168,-0.852963,0.24217,-0.45109499999999997
1630678981177,-0.852048,0.240706,-0.44987499999999997
1630678981187,-0.851499,0.240706,-0.447862
1630678981196,-0.8529019999999999,0.240828,-0.448716
1630678981206,-0.851438,0.239974,-0.449082
1630678981216,-0.849486,0.239669,-0.449326
1630678981225,-0.849059,0.239181,-0.447252
1630678981235,-0.851194,0.243024,-0.448228
1630678981244,-0.852109,0.245464,-0.450058
1630678981254,-0.8525969999999999,0.244061,-0.453779
1630678981264,-0.854061,0.24326799999999998,-0.454999
1630678981273,-0.853756,0.241865,-0.453657
1630678981283,-0.852475,0.238998,-0.451339
1630678981292,-0.852353,0.23424,-0.448838
1630678981302,-0.851255,0.23302,-0.448899
1630678981312,-0.8504619999999999,0.233752,-0.45078999999999997
1630678981321,-0.850584,0.23338599999999998,-0.45109499999999997
1630678981331,-0.84912,0.23338599999999998,-0.454267
1630678981340,-0.849059,0.233264,-0.453901
1630678981350,-0.84973,0.23424,-0.453352
1630678981360,-0.850706,0.234118,-0.452559
1630678981369,-0.850523,0.234667,-0.454328
1630678981379,-0.84973,0.236009,-0.454816
1630678981388,-0.84973,0.236314,-0.453352
1630678981398,-0.850401,0.236619,-0.45200999999999997
1630678981408,-0.8510719999999999,0.236253,-0.45261999999999997
1630678981417,-0.850828,0.23607,-0.45475499999999996
1630678981427,-0.850706,0.23363,-0.45414499999999997
1630678981436,-0.85095,0.23302,-0.456219
1630678981446,-0.852963,0.231068,-0.456158
1630678981456,-0.852841,0.232532,-0.458598
1630678981465,-0.850584,0.233264,-0.457622
1630678981475,-0.850889,0.235033,-0.456219
1630678981484,-0.85217,0.238876,-0.455304
1630678981494,-0.85217,0.238998,-0.454084
1630678981504,-0.8507669999999999,0.239059,-0.453108
1630678981513,-0.851804,0.240218,-0.45475499999999996
1630678981523,-0.851865,0.241316,-0.455853
1630678981532,-0.852536,0.240218,-0.456524
1630678981542,-0.851926,0.238205,-0.455487
1630678981552,-0.850828,0.23741199999999998,-0.455609
1630678981561,-0.851438,0.236558,-0.455304
1630678981571,-0.8513769999999999,0.233874,-0.456219
1630678981580,-0.851011,0.233203,-0.45811
1630678981590,-0.851621,0.231922,-0.46036699999999997
1630678981600,-0.8513769999999999,0.229909,-0.46219699999999997
1630678981609,-0.852536,0.227164,-0.462929
1630678981619,-0.851621,0.225944,-0.466345
1630678981628,-0.853695,0.22197899999999998,-0.470737
1630678981638,-0.8516819999999999,0.218136,-0.47390899999999997
1630678981648,-0.851011,0.215635,-0.475617
1630678981657,-0.849791,0.212524,-0.478606
1630678981667,-0.8468019999999999,0.20630199999999999,-0.48348599999999997
1630678981676,-0.841068,0.197884,-0.488305
1630678981686,-0.8386279999999999,0.20166599999999998,-0.492148
1630678981696,-0.8374079999999999,0.210572,-0.491599
1630678981705,-0.83814,0.213256,-0.486414
1630678981715,-0.842105,0.220698,-0.48068
1630678981724,-0.842288,0.222955,-0.480558
1630678981734,-0.840275,0.220088,-0.48373
1630678981744,-0.841373,0.216001,-0.48714599999999997
1630678981753,-0.842227,0.210267,-0.493795
1630678981763,-0.839726,0.207278,-0.49794299999999997
1630678981772,-0.838872,0.20935199999999998,-0.493734
1630678981782,-0.83753,0.209291,-0.4941
1630678981792,-0.835456,0.20569199999999999,-0.497089
1630678981801,-0.833321,0.202703,-0.500871
1630678981811,-0.831064,0.19611499999999998,-0.508496
1630678981820,-0.831369,0.187636,-0.516975
1630678981830,-0.828197,0.177876,-0.526247
1630678981840,-0.825391,0.17019,-0.53253
1630678981849,-0.821182,0.16006399999999998,-0.5380199999999999
1630678981859,-0.824659,0.16439499999999999,-0.538203
1630678981868,-0.820999,0.16652999999999998,-0.541497
1630678981878,-0.82045,0.166103,-0.541436
1630678981888,-0.818803,0.164639,-0.543876
1630678981897,-0.814472,0.157685,-0.545767
1630678981907,-0.814533,0.15329299999999998,-0.548695
1630678981916,-0.809165,0.145851,-0.554978
1630678981926,-0.807396,0.140422,-0.561322
1630678981936,-0.805993,0.139141,-0.567056
1630678981945,-0.802577,0.140544,-0.568642
1630678981955,-0.801113,0.142923,-0.5696789999999999
1630678981964,-0.796843,0.14396,-0.568825
1630678981974,-0.795806,0.14518,-0.565287
1630678981984,-0.793305,0.140849,-0.567178
1630678981993,-0.790743,0.14066599999999999,-0.570533
1630678982003,-0.792634,0.140178,-0.57462
1630678982012,-0.789218,0.137799,-0.577609
1630678982022,-0.7862899999999999,0.137738,-0.579195
1630678982032,-0.785802,0.13786,-0.581086
1630678982041,-0.7878149999999999,0.142618,-0.584197
1630678982051,-0.788974,0.14249599999999998,-0.585051
1630678982060,-0.7896449999999999,0.142008,-0.586637
1630678982070,-0.7887299999999999,0.142862,-0.58804
1630678982080,-0.789218,0.146644,-0.58377
1630678982089,-0.790621,0.145973,-0.584746
1630678982099,-0.792695,0.143594,-0.585417
1630678982108,-0.794891,0.144326,-0.588894
1630678982118,-0.792817,0.142435,-0.587979
1630678982128,-0.792024,0.14091,-0.58499
1630678982137,-0.792939,0.14097099999999999,-0.583343
1630678982147,-0.793915,0.143899,-0.582489
1630678982156,-0.790621,0.147193,-0.582733
1630678982166,-0.790804,0.153354,-0.579195
1630678982176,-0.791414,0.16128399999999998,-0.576877
1630678982185,-0.790011,0.167079,-0.571387
1630678982195,-0.788913,0.17177599999999998,-0.572668
1630678982204,-0.788913,0.174643,-0.571265
1630678982214,-0.789096,0.175741,-0.568886
1630678982224,-0.7884249999999999,0.175985,-0.5708989999999999
1630678982233,-0.786412,0.177754,-0.573339
1630678982243,-0.788547,0.185989,-0.564006
1630678982252,-0.788974,0.194712,-0.5657139999999999
1630678982262,-0.789584,0.198982,-0.566263
1630678982272,-0.792207,0.198372,-0.566812
1630678982281,-0.793244,0.19702999999999998,-0.566385
1630678982291,-0.795745,0.195932,-0.568398
1630678982300,-0.796172,0.19337,-0.565836
1630678982310,-0.793793,0.1891,-0.562786
1630678982320,-0.795501,0.190808,-0.56303
1630678982329,-0.795562,0.19086899999999998,-0.561383
1630678982339,-0.794952,0.19025899999999998,-0.555954
1630678982348,-0.793976,0.191723,-0.557174
1630678982358,-0.792329,0.193126,-0.559736
1630678982368,-0.791414,0.194712,-0.562115
1630678982377,-0.7902549999999999,0.190747,-0.561017
1630678982387,-0.7902549999999999,0.191052,-0.564921
1630678982396,-0.7875099999999999,0.18788,-0.562481
1630678982406,-0.783789,0.187148,-0.563152
1630678982416,-0.787327,0.191296,-0.562115
1630678982425,-0.7905599999999999,0.189832,-0.565775
1630678982435,-0.790072,0.186294,-0.568703
1630678982444,-0.7920849999999999,0.185501,-0.573522
1630678982454,-0.792817,0.182146,-0.578707
1630678982464,-0.792756,0.17793699999999998,-0.582794
1630678982473,-0.7920849999999999,0.176595,-0.588162
1630678982483,-0.792878,0.17732699999999998,-0.5917
1630678982492,-0.792024,0.175985,-0.592554
1630678982502,-0.794891,0.181292,-0.597983
1630678982512,-0.802272,0.18903899999999998,-0.606828
1630678982521,-0.805627,0.19086899999999998,-0.61732
1630678982531,-0.8103239999999999,0.17824199999999998,-0.631777
1630678982540,-0.8103239999999999,0.160491,-0.645868
1630678982550,-0.810263,0.133468,-0.647698
1630678982560,-0.8060539999999999,0.111874,-0.636962
1630678982569,-0.802028,0.10126,-0.629886
1630678982579,-0.795074,0.09698999999999999,-0.615368
1630678982588,-0.785558,0.102358,-0.602436
1630678982598,-0.777201,0.117059,-0.5885279999999999
1630678982608,-0.76982,0.133407,-0.574498
1630678982617,-0.764513,0.14804699999999998,-0.566995
1630678982627,-0.756583,0.160918,-0.5687639999999999
1630678982636,-0.7512759999999999,0.169702,-0.571875
1630678982646,-0.745115,0.175558,-0.579378
1630678982656,-0.74054,0.18812399999999999,-0.586271
1630678982665,-0.737673,0.192455,-0.583526
1630678982675,-0.737978,0.19611499999999998,-0.5863929999999999
1630678982684,-0.737734,0.20380099999999998,-0.59231
1630678982694,-0.735355,0.205082,-0.59597
1630678982704,-0.73505,0.202703,-0.599935
1630678982713,-0.7357819999999999,0.200385,-0.601094
1630678982723,-0.735538,0.20014099999999999,-0.603412
1630678982732,-0.7342569999999999,0.200995,-0.606096
1630678982742,-0.7363919999999999,0.20435,-0.606279
1630678982752,-0.736758,0.201788,-0.603839
1630678982761,-0.7403569999999999,0.199104,-0.603107
1630678982771,-0.740418,0.191235,-0.604144
1630678982780,-0.743651,0.183,-0.612013
1630678982790,-0.747555,0.17793699999999998,-0.6180519999999999
1630678982800,-0.749141,0.170312,-0.621224
1630678982809,-0.75335,0.16994599999999999,-0.62159
1630678982819,-0.754143,0.168177,-0.622261
1630678982828,-0.756827,0.165249,-0.622688
1630678982838,-0.757864,0.161894,-0.624762
1630678982848,-0.759572,0.156404,-0.623359
1630678982857,-0.760914,0.155245,-0.619516
1630678982867,-0.7613409999999999,0.151524,-0.619211
1630678982876,-0.762683,0.151646,-0.617198
1630678982886,-0.7643909999999999,0.155855,-0.614636
1630678982896,-0.766465,0.154635,-0.6134769999999999
1630678982905,-0.766343,0.157319,-0.6122569999999999
1630678982915,-0.766282,0.15298799999999999,-0.61061
1630678982924,-0.767807,0.152561,-0.611098
1630678982934,-0.768356,0.148718,-0.6076819999999999
1630678982944,-0.771284,0.153842,-0.610854
1630678982953,-0.771467,0.158112,-0.605669
1630678982963,-0.776408,0.160796,-0.603961
1630678982972,-0.777628,0.161162,-0.603107
1630678982982,-0.775737,0.158722,-0.598166
1630678982992,-0.784643,0.16652999999999998,-0.5961529999999999
1630678983001,-0.784216,0.169092,-0.597861
1630678983011,-0.7862899999999999,0.175924,-0.590236
1630678983020,-0.787937,0.17568,-0.580964
1630678983030,-0.789828,0.173484,-0.57157
1630678983040,-0.792268,0.170739,-0.572851
1630678983049,-0.791902,0.16469999999999999,-0.572363
1630678983059,-0.792024,0.161772,-0.5712039999999999
1630678983068,-0.791292,0.164944,-0.565287
1630678983078,-0.795684,0.176473,-0.56242
1630678983088,-0.796477,0.180987,-0.560895
1630678983097,-0.79605,0.180011,-0.554917
1630678983107,-0.796111,0.180865,-0.551867
1630678983116,-0.800686,0.182024,-0.5456449999999999
1630678983126,-0.804956,0.180194,-0.5438149999999999
1630678983136,-0.806237,0.180377,-0.539667
1630678983145,-0.8103239999999999,0.18257299999999999,-0.53192
1630678983155,-0.815082,0.182634,-0.529297
1630678983164,-0.818925,0.180987,-0.528504
1630678983174,-0.823439,0.18226799999999999,-0.526796
1630678983184,-0.831186,0.181902,-0.5234409999999999
1630678983193,-0.831674,0.17324,-0.524905
1630678983203,-0.832894,0.163419,-0.526979
1630678983212,-0.8337479999999999,0.157868,-0.528748
1630678983222,-0.835334,0.153354,-0.530029
1630678983232,-0.836249,0.152805,-0.52887
1630678983241,-0.838384,0.159576,-0.524661
1630678983251,-0.840275,0.159942,-0.522892
1630678983260,-0.8398479999999999,0.157563,-0.518683
1630678983270,-0.839726,0.157502,-0.5185609999999999
1630678983280,-0.841495,0.156587,-0.520513
1630678983289,-0.839665,0.160735,-0.521977
1630678983299,-0.845399,0.162382,-0.523197
1630678983308,-0.847656,0.16500499999999999,-0.524173
1630678983318,-0.849608,0.166774,-0.524295
1630678983328,-0.851865,0.167628,-0.525637
1630678983337,-0.852841,0.167384,-0.5234409999999999
1630678983347,-0.852048,0.16561499999999998,-0.5188659999999999
1630678983356,-0.853451,0.167079,-0.516914
1630678983366,-0.850706,0.165371,-0.514657
1630678983376,-0.84546,0.162931,-0.511973
1630678983385,-0.845094,0.165432,-0.509411
1630678983395,-0.841922,0.169336,-0.507398
1630678983404,-0.840519,0.170983,-0.506605
1630678983414,-0.841617,0.17580199999999999,-0.506971
1630678983424,-0.8401529999999999,0.181536,-0.506544
1630678983433,-0.837591,0.185562,-0.504226
1630678983443,-0.839055,0.19056399999999998,-0.504714
1630678983452,-0.8386279999999999,0.193919,-0.503982
1630678983462,-0.8361879999999999,0.19641999999999998,-0.500627
1630678983472,-0.8352729999999999,0.196237,-0.49855299999999997
1630678983481,-0.834297,0.19519999999999998,-0.497699
1630678983491,-0.831796,0.193309,-0.49733299999999997
1630678983500,-0.832162,0.192821,-0.49946799999999997
1630678983510,-0.8291729999999999,0.189405,-0.503311
1630678983520,-0.82777,0.188795,-0.50081
1630678983529,-0.829234,0.192882,-0.503067
1630678983539,-0.828746,0.194102,-0.503555
1630678983548,-0.830149,0.197884,-0.504043
1630678983558,-0.829295,0.199043,-0.508374
1630678983568,-0.830027,0.202398,-0.507032
1630678983577,-0.831552,0.20105599999999998,-0.508679
1630678983587,-0.830271,0.200202,-0.508496
1630678983596,-0.831979,0.200629,-0.508374
1630678983606,-0.83021,0.196359,-0.508313
1630678983616,-0.828014,0.194956,-0.506178
1630678983625,-0.8267329999999999,0.19458999999999999,-0.507825
1630678983635,-0.8273429999999999,0.196298,-0.511912
1630678983644,-0.8294779999999999,0.197579,-0.513803
1630678983654,-0.8297829999999999,0.198677,-0.514718
1630678983664,-0.830515,0.197152,-0.514718
1630678983673,-0.830576,0.191418,-0.517402
1630678983683,-0.830576,0.188612,-0.520452
1630678983692,-0.828136,0.1891,-0.5197809999999999
1630678983702,-0.825635,0.18873399999999999,-0.5133759999999999
1630678983712,-0.828136,0.188978,-0.509533
1630678983721,-0.8306979999999999,0.192882,-0.5188659999999999
1630678983731,-0.827282,0.197762,-0.518988
1630678983740,-0.82777,0.198128,-0.515572
1630678983750,-0.826306,0.193797,-0.515877
1630678983760,-0.822341,0.189588,-0.514962
1630678983769,-0.8221579999999999,0.189893,-0.512705
1630678983779,-0.824964,0.194407,-0.5124609999999999
1630678983788,-0.822646,0.193614,-0.514108
1630678983798,-0.820023,0.197701,-0.511912
1630678983808,-0.824842,0.203862,-0.508679
1630678983817,-0.821792,0.20569199999999999,-0.506788
1630678983827,-0.8221579999999999,0.20935199999999998,-0.502762
1630678983836,-0.821853,0.210145,-0.500505
1630678983846,-0.820694,0.210694,-0.49763799999999997
1630678983856,-0.824659,0.218197,-0.497821
1630678983865,-0.8245979999999999,0.223931,-0.499285
1630678983875,-0.82899,0.224846,-0.494832
1630678983884,-0.8316129999999999,0.219417,-0.492209
1630678983894,-0.8340529999999999,0.213134,-0.49044
1630678983904,-0.836432,0.208925,-0.49141599999999996
1630678983913,-0.835517,0.203923,-0.48897599999999997
1630678983923,-0.837347,0.204594,-0.48495
1630678983932,-0.8395429999999999,0.207278,-0.482449
1630678983942,-0.841373,0.209535,-0.481412
1630678983952,-0.842959,0.208559,-0.482632
1630678983961,-0.842288,0.205875,-0.479765
1630678983971,-0.844606,0.20557,-0.480863
1630678983980,-0.84546,0.205753,-0.481046
1630678983990,-0.8461919999999999,0.206851,-0.47970399999999996
1630678984000,-0.845948,0.20813199999999998,-0.480863
1630678984009,-0.846314,0.20862,-0.477142
1630678984019,-0.8489369999999999,0.20599699999999999,-0.47604399999999997
1630678984028,-0.8535119999999999,0.203557,-0.481717
1630678984038,-0.853146,0.199653,-0.488122
1630678984048,-0.8504619999999999,0.198067,-0.487695
1630678984057,-0.848388,0.198616,-0.486292
1630678984067,-0.846558,0.195383,-0.485438
1630678984076,-0.844606,0.192882,-0.490013
1630678984086,-0.84485,0.19276,-0.494771
1630678984096,-0.843935,0.192333,-0.49916299999999997
1630678984105,-0.842166,0.191906,-0.500688
1630678984115,-0.8398479999999999,0.192394,-0.501664
1630678984124,-0.837286,0.189588,-0.499895
1630678984134,-0.8349679999999999,0.191296,-0.498431
1630678984144,-0.8374079999999999,0.195017,-0.496296
1630678984153,-0.837896,0.198372,-0.49519799999999997
1630678984163,-0.836249,0.200507,-0.49294099999999996
1630678984172,-0.838384,0.205082,-0.48867099999999997
1630678984182,-0.837652,0.205509,-0.48739
1630678984192,-0.83631,0.207095,-0.48653599999999997
1630678984201,-0.836554,0.211121,-0.48739
1630678984211,-0.834724,0.212951,-0.486658
1630678984220,-0.837347,0.219478,-0.487878
1630678984230,-0.8407629999999999,0.225761,-0.488244
1630678984240,-0.843386,0.23094599999999998,-0.48495
1630678984249,-0.846009,0.230824,-0.480131
1630678984259,-0.845765,0.232532,-0.47763
1630678984268,-0.846375,0.234118,-0.47390899999999997
1630678984278,-0.847778,0.2318,-0.46848
1630678984288,-0.847473,0.23430099999999998,-0.46738199999999996
1630678984297,-0.84668,0.235338,-0.465796
1630678984307,-0.848144,0.239486,-0.46189199999999997
1630678984316,-0.8492419999999999,0.241926,-0.459696
1630678984326,-0.848449,0.241621,-0.456951
1630678984336,-0.8498519999999999,0.241926,-0.45627999999999996
1630678984345,-0.850523,0.242109,-0.456951
1630678984355,-0.851926,0.23973,-0.459269
1630678984364,-0.8522919999999999,0.235826,-0.46189199999999997
1630678984374,-0.8516819999999999,0.232044,-0.462441
1630678984384,-0.852719,0.229848,-0.46189199999999997
1630678984393,-0.853329,0.23094599999999998,-0.462136
1630678984403,-0.851438,0.228994,-0.464088
1630678984412,-0.850828,0.22997,-0.465308
1630678984422,-0.848815,0.232959,-0.465308
1630678984432,-0.8492419999999999,0.23363,-0.46463699999999997
1630678984441,-0.847778,0.235216,-0.466894
1630678984451,-0.847168,0.233569,-0.465613
1630678984460,-0.8474119999999999,0.235277,-0.464454
1630678984470,-0.846558,0.23485,-0.46433199999999997
1630678984480,-0.845155,0.23125099999999998,-0.46524699999999997
1630678984489,-0.843203,0.229055,-0.466223
1630678984499,-0.843264,0.22752999999999998,-0.466589
1630678984508,-0.84302,0.225944,-0.465796
1630678984518,-0.842593,0.22508999999999998,-0.46616199999999997
1630678984528,-0.840885,0.224663,-0.466589
1630678984537,-0.839787,0.22508999999999998,-0.466833
1630678984547,-0.841373,0.22417499999999999,-0.466589
1630678984556,-0.842837,0.225822,-0.466589
1630678984566,-0.842105,0.230092,-0.466894
1630678984576,-0.843203,0.230763,-0.46646699999999996
1630678984585,-0.845155,0.23003099999999999,-0.46402699999999997
1630678984595,-0.8471069999999999,0.228994,-0.462319
1630678984604,-0.84607,0.22875,-0.462746
1630678984614,-0.8464969999999999,0.22752999999999998,-0.462685
1630678984624,-0.8471069999999999,0.22875,-0.464149
1630678984633,-0.847351,0.227896,-0.463966
1630678984643,-0.847168,0.227347,-0.463661
1630678984652,-0.8468019999999999,0.226493,-0.46402699999999997
1630678984662,-0.846924,0.224297,-0.463478
1630678984672,-0.847595,0.222894,-0.463478
1630678984681,-0.8468019999999999,0.221796,-0.46494199999999997
1630678984691,-0.848083,0.221003,-0.464576
1630678984700,-0.848083,0.221552,-0.46604
1630678984710,-0.849486,0.223626,-0.466711
1630678984720,-0.84851,0.227042,-0.467809
1630678984729,-0.848205,0.227408,-0.465186
1630678984739,-0.850584,0.228811,-0.465613
1630678984748,-0.852231,0.226127,-0.469273
1630678984758,-0.848876,0.225578,-0.469761
1630678984768,-0.84851,0.226188,-0.467931
1630678984777,-0.848754,0.22875,-0.469273
1630678984787,-0.850096,0.23186099999999998,-0.471408
1630678984796,-0.851133,0.233935,-0.47116399999999997
1630678984806,-0.8516819999999999,0.231739,-0.470615
1630678984816,-0.852414,0.229604,-0.470188
1630678984825,-0.85034,0.227774,-0.47085899999999997
1630678984835,-0.849364,0.227347,-0.4697
1630678984844,-0.850096,0.225944,-0.468175
1630678984854,-0.849669,0.227103,-0.467809
1630678984864,-0.848205,0.225517,-0.467443
1630678984873,-0.844606,0.225822,-0.466589
1630678984883,-0.845887,0.227042,-0.46799199999999996
1630678984892,-0.844728,0.228323,-0.471286
1630678984902,-0.843569,0.230702,-0.471408
1630678984912,-0.843081,0.230519,-0.471347
1630678984921,-0.842959,0.230824,-0.4697
1630678984931,-0.842288,0.230458,-0.469029
1630678984940,-0.841678,0.232532,-0.46677199999999996
1630678984950,-0.841861,0.232532,-0.46787
1630678984960,-0.842776,0.233142,-0.468358
1630678984969,-0.842105,0.233752,-0.470981
1630678984979,-0.841312,0.23277599999999998,-0.472201
1630678984988,-0.841129,0.231434,-0.47329899999999997
1630678984998,-0.840824,0.228262,-0.473787
1630678985008,-0.840824,0.224907,-0.47299399999999997
1630678985017,-0.839604,0.221918,-0.473482
1630678985027,-0.838689,0.221796,-0.47604399999999997
1630678985036,-0.841129,0.22600499999999998,-0.477752
1630678985046,-0.841129,0.225456,-0.48000899999999996
1630678985056,-0.84119,0.226249,-0.482083
1630678985065,-0.840275,0.226066,-0.482815
1630678985075,-0.839421,0.225517,-0.48251
1630678985084,-0.838994,0.226371,-0.481595
1630678985094,-0.839421,0.227713,-0.48092399999999996
1630678985104,-0.838811,0.225212,-0.479521
1630678985113,-0.8374079999999999,0.224297,-0.478423
1630678985123,-0.8367979999999999,0.224968,-0.476288
1630678985132,-0.836066,0.225456,-0.47695899999999997
1630678985142,-0.836432,0.227286,-0.47641
1630678985152,-0.8377129999999999,0.228872,-0.47665399999999997
1630678985161,-0.838506,0.228628,-0.476166
1630678985171,-0.838079,0.228872,-0.47634899999999997
1630678985180,-0.838262,0.230824,-0.47451899999999997
1630678985190,-0.837469,0.230214,-0.474641
1630678985200,-0.837286,0.22997,-0.474275
1630678985209,-0.837652,0.230885,-0.47573899999999997
1630678985219,-0.838567,0.233325,-0.477081
1630678985228,-0.8380179999999999,0.231434,-0.47970399999999996
1630678985238,-0.838811,0.23003099999999999,-0.478728
1630678985248,-0.838506,0.228872,-0.478362
1630678985257,-0.8395429999999999,0.228628,-0.47878899999999996
1630678985267,-0.840214,0.228018,-0.47817899999999997
1630678985276,-0.84058,0.226676,-0.47763
1630678985286,-0.841251,0.226859,-0.47817899999999997
1630678985296,-0.840397,0.224846,-0.478057
1630678985305,-0.840031,0.224114,-0.478118
1630678985315,-0.840824,0.224297,-0.47756899999999997
1630678985324,-0.8407629999999999,0.224602,-0.479521
1630678985334,-0.839787,0.22539499999999998,-0.478911
1630678985344,-0.841861,0.225761,-0.479826
1630678985353,-0.841312,0.225456,-0.479826
1630678985363,-0.841983,0.225273,-0.479521
1630678985372,-0.842715,0.224968,-0.479155
1630678985382,-0.842654,0.225639,-0.477447
1630678985392,-0.842776,0.224419,-0.47824
1630678985401,-0.841434,0.224236,-0.477508
1630678985411,-0.841312,0.222833,-0.478667
1630678985420,-0.840946,0.224114,-0.47885
1630678985430,-0.841739,0.222894,-0.478972
1630678985440,-0.841983,0.222772,-0.47885
1630678985449,-0.842288,0.220881,-0.479643
1630678985459,-0.8407629999999999,0.21899,-0.477752
1630678985468,-0.842105,0.223321,-0.478301
1630678985478,-0.843386,0.225639,-0.47878899999999996
1630678985488,-0.842288,0.224114,-0.477752
1630678985497,-0.840397,0.221796,-0.478423
1630678985507,-0.839421,0.223626,-0.477325
1630678985516,-0.840641,0.22143,-0.47848399999999996
1630678985526,-0.840092,0.220332,-0.476837
1630678985536,-0.841678,0.2196,-0.47421399999999997
1630678985545,-0.841434,0.220088,-0.474763
1630678985555,-0.841739,0.219356,-0.475556
1630678985564,-0.841068,0.218502,-0.477447
1630678985574,-0.842776,0.21953899999999998,-0.47848399999999996
1630678985584,-0.844667,0.220515,-0.478057
1630678985593,-0.842837,0.219478,-0.47763
1630678985603,-0.842776,0.21831899999999999,-0.477386
1630678985612,-0.843264,0.218136,-0.478606
1630678985622,-0.843935,0.21899,-0.476227
1630678985632,-0.842471,0.217343,-0.473848
1630678985641,-0.8418,0.216611,-0.47573899999999997
1630678985651,-0.842532,0.220942,-0.47695899999999997
1630678985660,-0.843691,0.221918,-0.478728
1630678985670,-0.8479,0.21923399999999998,-0.479033
1630678985680,-0.848083,0.216245,-0.48129
1630678985689,-0.8480219999999999,0.211487,-0.481046
1630678985699,-0.8464969999999999,0.20935199999999998,-0.478423
1630678985708,-0.845033,0.208864,-0.475068
1630678985718,-0.845948,0.209413,-0.475068
1630678985728,-0.844606,0.209779,-0.47573899999999997
1630678985737,-0.84363,0.21276799999999998,-0.476776
1630678985747,-0.843569,0.21533,-0.477447
1630678985756,-0.843203,0.217587,-0.47848399999999996
1630678985766,-0.843813,0.217343,-0.47939899999999996
1630678985776,-0.843386,0.215757,-0.478423
1630678985785,-0.843874,0.21533,-0.478118
1630678985795,-0.843569,0.215635,-0.479521
1630678985804,-0.843813,0.216062,-0.478606
1630678985814,-0.843386,0.217038,-0.47817899999999997
1630678985824,-0.84363,0.218258,-0.480192
1630678985833,-0.844179,0.218746,-0.479033
1630678985843,-0.844545,0.21831899999999999,-0.479155
1630678985852,-0.843935,0.21838,-0.478728
1630678985862,-0.844667,0.21801399999999999,-0.47878899999999996
1630678985872,-0.842959,0.217526,-0.48000899999999996
1630678985881,-0.84058,0.217465,-0.477508
1630678985891,-0.84241,0.223443,-0.48068
1630678985900,-0.841861,0.223626,-0.48000899999999996
1630678985910,-0.841068,0.222406,-0.479277
1630678985920,-0.839726,0.221308,-0.47946
1630678985929,-0.840519,0.22082,-0.47848399999999996
1630678985939,-0.839482,0.218502,-0.47695899999999997
1630678985948,-0.839482,0.21612299999999998,-0.476837
1630678985958,-0.840031,0.214659,-0.476166
1630678985968,-0.8392379999999999,0.213561,-0.477447
1630678985977,-0.840214,0.2135,-0.477996
1630678985987,-0.8404579999999999,0.214781,-0.478301
1630678985996,-0.840946,0.215452,-0.47702
1630678986006,-0.841556,0.216245,-0.47817899999999997
1630678986016,-0.842166,0.217648,-0.478118
1630678986025,-0.844057,0.21953899999999998,-0.478972
1630678986035,-0.844484,0.218807,-0.480436
1630678986044,-0.844423,0.21655,-0.48122899999999996
1630678986054,-0.842837,0.21612299999999998,-0.481351
1630678986064,-0.842959,0.215086,-0.48061899999999996
1630678986073,-0.844667,0.21411,-0.479765
1630678986083,-0.843813,0.215452,-0.480253
1630678986092,-0.844362,0.216489,-0.480375
1630678986102,-0.844118,0.215635,-0.480192
1630678986112,-0.843081,0.214049,-0.48007
1630678986121,-0.84424,0.214354,-0.482205
1630678986131,-0.842776,0.213134,-0.48318099999999997
1630678986140,-0.842532,0.212402,-0.484584
1630678986150,-0.841129,0.21167,-0.48348599999999997
1630678986160,-0.840702,0.210206,-0.483242
1630678986169,-0.841312,0.20984,-0.483852
1630678986179,-0.841251,0.209535,-0.482937
1630678986188,-0.839909,0.208925,-0.48348599999999997
1630678986198,-0.840275,0.209474,-0.484279
1630678986208,-0.840702,0.210694,-0.484218
1630678986217,-0.841007,0.211609,-0.48495
1630678986227,-0.839177,0.210633,-0.484645
1630678986236,-0.83936,0.208803,-0.484828
1630678986246,-0.841251,0.207949,-0.48440099999999997
1630678986256,-0.841739,0.208681,-0.484279
1630678986265,-0.841739,0.20862,-0.485438
1630678986275,-0.840214,0.206668,-0.485194
1630678986284,-0.840397,0.206424,-0.483364
1630678986294,-0.8401529999999999,0.206546,-0.483852
1630678986304,-0.840336,0.205204,-0.48318099999999997
1630678986313,-0.841373,0.206424,-0.483242
1630678986323,-0.841922,0.205448,-0.48287599999999997
1630678986332,-0.843264,0.206058,-0.483608
1630678986342,-0.843325,0.205753,-0.484828
1630678986352,-0.84424,0.205875,-0.484035
1630678986361,-0.846985,0.20862,-0.483669
1630678986371,-0.845826,0.20679,-0.482754
1630678986380,-0.844179,0.205082,-0.479765
1630678986390,-0.844484,0.205814,-0.47909399999999996
1630678986400,-0.845094,0.207461,-0.47970399999999996
1630678986409,-0.845216,0.208193,-0.47817899999999997
1630678986419,-0.844972,0.209718,-0.478362
1630678986428,-0.843874,0.21045,-0.47909399999999996
1630678986438,-0.845094,0.212585,-0.480802
1630678986448,-0.845887,0.212951,-0.480131
1630678986457,-0.847229,0.212341,-0.479521
1630678986467,-0.848571,0.20904699999999998,-0.480497
1630678986476,-0.848571,0.207034,-0.479338
1630678986486,-0.846924,0.203923,-0.477752
1630678986496,-0.8480219999999999,0.203862,-0.475617
1630678986505,-0.8486319999999999,0.204228,-0.476227
1630678986515,-0.847961,0.204411,-0.476593
1630678986524,-0.845521,0.20618,-0.47756899999999997
1630678986534,-0.845704,0.208559,-0.478057
1630678986544,-0.845582,0.20965699999999998,-0.476837
1630678986553,-0.846558,0.21106,-0.47885
1630678986563,-0.846619,0.211609,-0.479155
1630678986572,-0.846436,0.210267,-0.479338
1630678986582,-0.847168,0.210023,-0.479277
1630678986592,-0.846741,0.210023,-0.479155
1630678986601,-0.846741,0.209779,-0.479033
1630678986611,-0.845887,0.210999,-0.479338
1630678986620,-0.847168,0.20965699999999998,-0.479582
1630678986630,-0.847473,0.208864,-0.480497
1630678986640,-0.847473,0.206973,-0.482815
1630678986649,-0.846558,0.207339,-0.483608
1630678986659,-0.846741,0.20984,-0.48556
1630678986668,-0.846253,0.20801,-0.484157
1630678986678,-0.842898,0.207888,-0.48257099999999997
1630678986688,-0.842776,0.208681,-0.482754
1630678986697,-0.842288,0.205143,-0.484584
1630678986707,-0.8404579999999999,0.202764,-0.489342
1630678986716,-0.839482,0.200019,-0.495625
1630678986726,-0.8380179999999999,0.198128,-0.497882
1630678986736,-0.835395,0.198494,-0.494222
1630678986745,-0.8313079999999999,0.201788,-0.48592599999999997
1630678986755,-0.82838,0.205814,-0.47695899999999997
1630678986764,-0.82472,0.206119,-0.47543399999999997
1630678986774,-0.821548,0.202825,-0.478911
1630678986784,-0.818193,0.195261,-0.48440099999999997
1630678986793,-0.816668,0.187636,-0.48983
1630678986803,-0.81679,0.181658,-0.495869
1630678986812,-0.81923,0.17915699999999998,-0.501115
1630678986822,-0.82533,0.179828,-0.50996
1630678986832,-0.829905,0.17995,-0.513193
1630678986841,-0.8349679999999999,0.195444,-0.505141
1630678986851,-0.836371,0.20874199999999998,-0.497394
1630678986860,-0.833382,0.210755,-0.49080599999999996
1630678986870,-0.8331379999999999,0.205753,-0.490379
1630678986880,-0.833077,0.196542,-0.49532
1630678986889,-0.834602,0.19337,-0.502823
1630678986899,-0.8380179999999999,0.188551,-0.510021
1630678986908,-0.841068,0.174948,-0.5173409999999999
1630678986918,-0.843264,0.164822,-0.519049
1630678986928,-0.84363,0.15921,-0.520513
1630678986937,-0.843142,0.15433,-0.523319
1630678986947,-0.843447,0.150792,-0.521977
1630678986956,-0.843874,0.14774199999999998,-0.526308
1630678986966,-0.843752,0.144265,-0.528992
1630678986976,-0.845643,0.141459,-0.53436
1630678986985,-0.8477169999999999,0.135054,-0.539484
1630678986995,-0.847839,0.124623,-0.543754
1630678987004,-0.845033,0.118645,-0.546804
1630678987014,-0.84668,0.12193899999999999,-0.544486
1630678987024,-0.8480219999999999,0.116937,-0.5462549999999999
1630678987033,-0.8474119999999999,0.108702,-0.549549
1630678987043,-0.844789,0.103273,-0.554551
1630678987052,-0.842898,0.10004,-0.555039
1630678987062,-0.840702,0.100406,-0.554002
1630678987072,-0.838384,0.101687,-0.553636
1630678987081,-0.835639,0.106567,-0.554673
1630678987091,-0.831186,0.112484,-0.552721
1630678987100,-0.826367,0.117425,-0.549915
1630678987110,-0.820328,0.123464,-0.5428999999999999
1630678987120,-0.819169,0.124379,-0.540582
1630678987129,-0.817461,0.124928,-0.545157
1630678987139,-0.81801,0.125904,-0.549915
1630678987148,-0.815692,0.127246,-0.547719
1630678987158,-0.812398,0.126514,-0.538874
1630678987168,-0.811666,0.133895,-0.5374099999999999
1630678987177,-0.810812,0.138592,-0.540338
1630678987187,-0.807396,0.14219099999999998,-0.541802
1630678987196,-0.804956,0.144082,-0.539118
1630678987206,-0.804041,0.145363,-0.536129
1630678987216,-0.803431,0.147071,-0.535519
1630678987225,-0.802455,0.14682699999999999,-0.536068
1630678987235,-0.80398,0.14713199999999999,-0.536922
1630678987244,-0.805261,0.147681,-0.536373
1630678987254,-0.8060539999999999,0.14926699999999998,-0.536068
1630678987264,-0.80642,0.152622,-0.534421
1630678987273,-0.805932,0.15738,-0.532042
1630678987283,-0.807457,0.16439499999999999,-0.529358
1630678987292,-0.807396,0.169336,-0.524356
1630678987302,-0.80886,0.173789,-0.521733
1630678987312,-0.810995,0.178669,-0.5219159999999999
1630678987321,-0.813313,0.182085,-0.525637
1630678987331,-0.81496,0.182085,-0.527467
1630678987340,-0.816546,0.180621,-0.529297
1630678987350,-0.817644,0.178913,-0.531432
1630678987360,-0.81923,0.17763199999999998,-0.531798
1630678987369,-0.822646,0.177144,-0.532652
1630678987379,-0.824415,0.179828,-0.533689
1630678987388,-0.825452,0.17885199999999998,-0.533323
1630678987398,-0.827526,0.177876,-0.533872
1630678987408,-0.828502,0.178425,-0.53497
1630678987417,-0.829112,0.174399,-0.5367999999999999
1630678987427,-0.828624,0.17360599999999998,-0.536983
1630678987436,-0.828929,0.176229,-0.5374099999999999
1630678987446,-0.829661,0.180621,-0.536556
1630678987456,-0.827282,0.183976,-0.53436
1630678987465,-0.8264279999999999,0.19117399999999998,-0.529358
1630678987475,-0.826184,0.197091,-0.523319
1630678987484,-0.824964,0.203008,-0.51972
1630678987494,-0.824415,0.20557,-0.520757
1630678987504,-0.824415,0.205509,-0.523868
1630678987513,-0.822585,0.202154,-0.527772
1630678987523,-0.822036,0.19825,-0.529846
1630678987532,-0.819962,0.193919,-0.529602
1630678987542,-0.81923,0.194651,-0.529846
1630678987552,-0.818559,0.191723,-0.529541
1630678987561,-0.8155089999999999,0.18727,-0.530822
1630678987571,-0.814228,0.185257,-0.531676
1630678987580,-0.812093,0.183,-0.531432
1630678987590,-0.812337,0.179401,-0.532896
1630678987600,-0.811178,0.175924,-0.535641
1630678987609,-0.810873,0.173118,-0.537532
1630678987619,-0.8097139999999999,0.171044,-0.5389349999999999
1630678987628,-0.8109339999999999,0.168482,-0.538752
1630678987638,-0.813008,0.161711,-0.540826
1630678987648,-0.815326,0.158173,-0.543754
1630678987657,-0.81557,0.154635,-0.547109
1630678987667,-0.815631,0.14835199999999998,-0.549
1630678987676,-0.818437,0.1403,-0.55144
1630678987686,-0.820084,0.137128,-0.557174
1630678987696,-0.820816,0.13450499999999999,-0.558333
1630678987705,-0.823622,0.131394,-0.557357
1630678987715,-0.828014,0.127185,-0.556747
1630678987724,-0.829234,0.122732,-0.560712
1630678987734,-0.828685,0.11699799999999999,-0.562176
1630678987744,-0.828075,0.117486,-0.5623589999999999
1630678987753,-0.828502,0.115412,-0.562298
1630678987763,-0.828502,0.113094,-0.5635789999999999
1630678987772,-0.829051,0.110288,-0.564616
1630678987782,-0.828075,0.108946,-0.562481
1630678987792,-0.825574,0.115595,-0.558516
1630678987801,-0.824842,0.120109,-0.551806
1630678987811,-0.823012,0.124806,-0.548268
1630678987820,-0.820999,0.13115,-0.5444249999999999
1630678987830,-0.818132,0.136579,-0.542046
1630678987840,-0.81679,0.140422,-0.539484
1630678987849,-0.815448,0.143167,-0.536312
1630678987859,-0.8155089999999999,0.146766,-0.53497
1630678987868,-0.814106,0.151463,-0.535214
1630678987878,-0.8124589999999999,0.151768,-0.533994
1630678987888,-0.813496,0.153354,-0.530395
1630678987897,-0.812642,0.156221,-0.530029
1630678987907,-0.811727,0.161589,-0.529541
1630678987916,-0.811605,0.169702,-0.526857
1630678987926,-0.810202,0.178181,-0.520513
1630678987936,-0.80947,0.18812399999999999,-0.514535
1630678987945,-0.81069,0.201544,-0.508862
1630678987955,-0.8072739999999999,0.210084,-0.503006
1630678987964,-0.803126,0.215147,-0.493917
1630678987974,-0.804468,0.224114,-0.487573
1630678987984,-0.80215,0.229543,-0.483974
1630678987993,-0.797636,0.23003099999999999,-0.48092399999999996
1630678988003,-0.797514,0.23125099999999998,-0.479826
1630678988012,-0.800198,0.23973,-0.48092399999999996
1630678988022,-0.807762,0.249307,-0.483303
1630678988032,-0.817522,0.247416,-0.489098
1630678988041,-0.821365,0.24357299999999998,-0.488793
1630678988051,-0.8276479999999999,0.23893699999999998,-0.485865
1630678988060,-0.829539,0.233264,-0.4819
1630678988070,-0.834175,0.226188,-0.474336
1630678988080,-0.837164,0.218868,-0.470676
1630678988089,-0.847046,0.21185299999999999,-0.478972
1630678988099,-0.85217,0.20313,-0.492148
1630678988108,-0.855891,0.202032,-0.502762
1630678988118,-0.861198,0.209474,-0.512156
1630678988128,-0.864614,0.211365,-0.518378
1630678988137,-0.862906,0.20660699999999999,-0.5194759999999999
1630678988147,-0.861503,0.201605,-0.509594
1630678988156,-0.864553,0.19580999999999998,-0.498736
1630678988166,-0.86864,0.191906,-0.491782
1630678988176,-0.8723,0.190808,-0.492087
1630678988185,-0.878583,0.18964899999999998,-0.492087
1630678988195,-0.882853,0.189588,-0.492514
1630678988204,-0.88511,0.186538,-0.493673
1630678988214,-0.884988,0.183854,-0.492575
1630678988224,-0.8836459999999999,0.186416,-0.49050099999999996
1630678988233,-0.8799859999999999,0.185562,-0.48861
1630678988243,-0.875655,0.184891,-0.490684
1630678988252,-0.867908,0.180621,-0.489037
1630678988262,-0.864248,0.18422,-0.48562099999999997
1630678988272,-0.8593069999999999,0.18483,-0.485255
1630678988281,-0.853146,0.184281,-0.482693
1630678988291,-0.8479,0.185684,-0.477996
1630678988300,-0.842227,0.18531799999999998,-0.471286
1630678988310,-0.836371,0.185257,-0.463966
1630678988320,-0.831064,0.18117,-0.458781
1630678988329,-0.829539,0.178974,-0.45475499999999996
1630678988339,-0.828746,0.181597,-0.458354
1630678988348,-0.8291729999999999,0.180621,-0.46463699999999997
1630678988358,-0.8313079999999999,0.18727,-0.46402699999999997
1630678988368,-0.831674,0.189832,-0.46787
1630678988377,-0.833687,0.191296,-0.467321
1630678988387,-0.834297,0.19215,-0.468724
1630678988396,-0.836005,0.191418,-0.468358
1630678988406,-0.837896,0.193248,-0.465918
1630678988416,-0.838384,0.191357,-0.467626
1630678988425,-0.840092,0.19276,-0.468114
1630678988435,-0.843691,0.195017,-0.469517
1630678988444,-0.844301,0.195688,-0.472323
1630678988454,-0.8468019999999999,0.196054,-0.471896
1630678988464,-0.84912,0.19550499999999998,-0.474885
1630678988473,-0.84973,0.191967,-0.476166
1630678988483,-0.8522919999999999,0.19367499999999999,-0.478667
1630678988492,-0.853939,0.19458999999999999,-0.481351
1630678988502,-0.8522919999999999,0.190198,-0.48122899999999996
1630678988512,-0.8532069999999999,0.190015,-0.482998
1630678988521,-0.857721,0.186477,-0.477691
1630678988531,-0.845826,0.176656,-0.489647
1630678988540,-0.873703,0.187209,-0.498614
1630678988550,-0.860466,0.186599,-0.49489299999999997
1630678988560,-0.851926,0.183,-0.485438
1630678988569,-0.858941,0.187941,-0.48556
1630678988579,-0.859063,0.192821,-0.488305
1630678988588,-0.85705,0.192882,-0.488854
1630678988598,-0.856013,0.195017,-0.48714599999999997
1630678988608,-0.8544269999999999,0.194651,-0.490013
1630678988617,-0.853634,0.19702999999999998,-0.491965
1630678988627,-0.8510719999999999,0.199287,-0.489647
1630678988636,-0.85034,0.200812,-0.486658
1630678988646,-0.848449,0.2013,-0.486109
1630678988656,-0.8461919999999999,0.202642,-0.48745099999999997
1630678988665,-0.84668,0.20197099999999998,-0.488
1630678988675,-0.844728,0.205204,-0.488305
1630678988684,-0.843752,0.20874199999999998,-0.488488
1630678988694,-0.842166,0.210633,-0.48806099999999997
1630678988704,-0.83936,0.208986,-0.48592599999999997
1630678988713,-0.837347,0.208254,-0.484584
1630678988723,-0.837469,0.210328,-0.486048
1630678988732,-0.835639,0.20965699999999998,-0.486048
1630678988742,-0.832162,0.211365,-0.48470599999999997
1630678988752,-0.83265,0.213134,-0.483242
1630678988761,-0.831796,0.21520799999999998,-0.48501099999999997
1630678988771,-0.831735,0.217038,-0.48714599999999997
1630678988780,-0.833626,0.217282,-0.488488
1630678988790,-0.834602,0.215025,-0.48739
1630678988800,-0.833016,0.211975,-0.488732
1630678988809,-0.833565,0.208071,-0.487634
1630678988819,-0.836127,0.210511,-0.48440099999999997
1630678988828,-0.8380179999999999,0.210023,-0.48409599999999997
1630678988838,-0.836066,0.208315,-0.488915
1630678988848,-0.8367979999999999,0.206119,-0.488488
1630678988857,-0.838994,0.206546,-0.48684099999999997
1630678988867,-0.839604,0.20349599999999998,-0.488854
1630678988876,-0.838994,0.199226,-0.489647
1630678988886,-0.839177,0.196847,-0.490623
1630678988896,-0.841251,0.193797,-0.49105
1630678988905,-0.842227,0.191906,-0.493368
1630678988915,-0.841922,0.193492,-0.494283
1630678988924,-0.840702,0.195444,-0.493917
1630678988934,-0.84241,0.19886,-0.49044
1630678988944,-0.843386,0.199531,-0.487817
1630678988953,-0.843142,0.202032,-0.485377
1630678988963,-0.843142,0.20630199999999999,-0.48409599999999997
1630678988972,-0.840519,0.20599699999999999,-0.48348599999999997
1630678988982,-0.844789,0.212036,-0.47878899999999996
1630678988992,-0.846314,0.216977,-0.478728
1630678989001,-0.842898,0.21581799999999998,-0.479582
1630678989011,-0.840702,0.217343,-0.479155
1630678989020,-0.842349,0.223931,-0.479887
1630678989030,-0.84241,0.225029,-0.476532
1630678989040,-0.842288,0.226859,-0.47390899999999997
1630678989049,-0.842166,0.231373,-0.474397
1630678989059,-0.840824,0.233142,-0.47390899999999997
1630678989068,-0.840824,0.237473,-0.469883
1630678989078,-0.841312,0.240706,-0.464088
1630678989088,-0.842044,0.24204799999999999,-0.460916
1630678989097,-0.841861,0.24339,-0.460428
1630678989107,-0.840519,0.241865,-0.459696
1630678989116,-0.8404579999999999,0.23680199999999998,-0.458415
1630678989126,-0.841678,0.24217,-0.45566999999999996
1630678989136,-0.84363,0.248392,-0.45566999999999996
1630678989145,-0.842959,0.251625,-0.455182
1630678989155,-0.843142,0.256322,-0.452864
1630678989164,-0.845826,0.258091,-0.452071
1630678989174,-0.845643,0.258152,-0.451644
1630678989184,-0.846131,0.25638299999999997,-0.45383999999999997
1630678989193,-0.847778,0.251076,-0.454267
1630678989203,-0.8477169999999999,0.247965,-0.455609
1630678989212,-0.8510719999999999,0.24631799999999998,-0.454877
1630678989222,-0.852841,0.245586,-0.456524
1630678989232,-0.8541219999999999,0.242231,-0.456829
1630678989241,-0.8544269999999999,0.242109,-0.45933
1630678989251,-0.8547319999999999,0.239059,-0.46238
1630678989260,-0.853268,0.233752,-0.46250199999999997
1630678989270,-0.854976,0.22936,-0.465491
1630678989280,-0.8532069999999999,0.22204,-0.470371
1630678989289,-0.852353,0.217221,-0.47519
1630678989299,-0.851194,0.216611,-0.47848399999999996
1630678989308,-0.852353,0.217099,-0.47909399999999996
1630678989318,-0.8525969999999999,0.220393,-0.480741
1630678989328,-0.849303,0.222223,-0.48379099999999997
1630678989337,-0.849913,0.221552,-0.484523
1630678989347,-0.847656,0.21838,-0.483303
1630678989356,-0.847656,0.21831899999999999,-0.48318099999999997
1630678989366,-0.845521,0.21953899999999998,-0.482327
1630678989376,-0.844118,0.222772,-0.480497
1630678989385,-0.845094,0.22813999999999998,-0.479521
1630678989395,-0.842776,0.229299,-0.479765
1630678989404,-0.842898,0.232288,-0.479887
1630678989414,-0.840336,0.228567,-0.480863
1630678989424,-0.839177,0.226737,-0.480802
1630678989433,-0.836554,0.228323,-0.482998
1630678989443,-0.838445,0.23241,-0.48434
1630678989452,-0.842288,0.23460599999999998,-0.48861
1630678989462,-0.840824,0.233508,-0.491538
1630678989472,-0.837591,0.234118,-0.491599
1630678989481,-0.833565,0.227408,-0.490623
1630678989491,-0.828441,0.221613,-0.488122
1630678989500,-0.829905,0.223077,-0.490257
1630678989510,-0.8296,0.22204,-0.49654
1630678989520,-0.825025,0.21801399999999999,-0.498004
1630678989529,-0.82167,0.213927,-0.504775
1630678989539,-0.821487,0.213256,-0.507154
1630678989548,-0.819291,0.21899,-0.504897
1630678989558,-0.819657,0.222162,-0.502762
1630678989568,-0.822646,0.227652,-0.506361
1630678989577,-0.821609,0.22936,-0.50813
1630678989587,-0.821914,0.23119,-0.507947
1630678989596,-0.820328,0.23064099999999998,-0.508008
1630678989606,-0.817583,0.226493,-0.507703
1630678989616,-0.813801,0.224114,-0.510387
1630678989625,-0.8097139999999999,0.222894,-0.510509
1630678989635,-0.8060539999999999,0.224907,-0.509106
1630678989644,-0.8054439999999999,0.229665,-0.508618
1630678989654,-0.8057489999999999,0.231434,-0.507459
1630678989664,-0.8045289999999999,0.233203,-0.509106
1630678989673,-0.803553,0.23363,-0.50935
1630678989683,-0.803675,0.23119,-0.507276
1630678989692,-0.80337,0.228079,-0.504348
1630678989702,-0.80398,0.229909,-0.506239
1630678989712,-0.804285,0.232349,-0.512278
1630678989721,-0.807152,0.23649699999999999,-0.514413
1630678989731,-0.813008,0.239364,-0.517463
1630678989740,-0.815936,0.241133,-0.5197809999999999
1630678989750,-0.820328,0.245769,-0.521062
1630678989760,-0.819108,0.247172,-0.520818
1630678989769,-0.819901,0.248636,-0.5191709999999999
1630678989779,-0.821731,0.253882,-0.520879
1630678989788,-0.822585,0.25729799999999997,-0.522465
1630678989798,-0.820877,0.2562,-0.523258
1630678989808,-0.819413,0.255346,-0.5234409999999999
1630678989817,-0.818315,0.253882,-0.522099
1630678989827,-0.81618,0.252174,-0.523502
1630678989836,-0.814533,0.251503,-0.522892
1630678989846,-0.810446,0.250527,-0.520818
1630678989856,-0.8109339999999999,0.25071,-0.518805
1630678989865,-0.810568,0.251869,-0.520513
1630678989875,-0.807396,0.249551,-0.5210009999999999
1630678989884,-0.805017,0.250832,-0.520757
1630678989894,-0.802882,0.249551,-0.518805
1630678989904,-0.801845,0.247965,-0.518378
1630678989913,-0.8023939999999999,0.24790399999999999,-0.521062
1630678989923,-0.802943,0.246806,-0.5213059999999999
1630678989932,-0.80337,0.247843,-0.518988
1630678989942,-0.806176,0.247782,-0.516365
1630678989952,-0.807457,0.241804,-0.506117
1630678989961,-0.7987339999999999,0.232044,-0.50935
1630678989971,-0.812886,0.244854,-0.526796
1630678989980,-0.8118489999999999,0.252967,-0.53009
1630678989990,-0.8045289999999999,0.24851399999999998,-0.52155
1630678990000,-0.811178,0.254858,-0.517463
1630678990009,-0.81557,0.263642,-0.5164259999999999
1630678990019,-0.814106,0.26095799999999997,-0.516914
1630678990028,-0.810385,0.257542,-0.51545
1630678990038,-0.81191,0.254919,-0.512217
1630678990048,-0.8106289999999999,0.257542,-0.515145
1630678990057,-0.8103239999999999,0.255956,-0.520208
1630678990067,-0.808555,0.253516,-0.51972
1630678990076,-0.80886,0.250771,-0.518439
1630678990086,-0.805993,0.249856,-0.518195
1630678990096,-0.805261,0.250588,-0.519232
1630678990105,-0.80459,0.251015,-0.516548
1630678990115,-0.8060539999999999,0.249368,-0.514047
1630678990124,-0.80581,0.250588,-0.514047
1630678990134,-0.8011739999999999,0.251137,-0.5164259999999999
1630678990144,-0.802821,0.249551,-0.512217
1630678990153,-0.802516,0.245342,-0.510753
1630678990163,-0.803736,0.246257,-0.513193
1630678990172,-0.80276,0.246928,-0.512827
1630678990182,-0.805993,0.247416,-0.510936
1630678990192,-0.806115,0.24509799999999998,-0.509716
1630678990201,-0.806115,0.242902,-0.511973
1630678990211,-0.806542,0.242475,-0.514535
1630678990220,-0.808311,0.24851399999999998,-0.515694
1630678990230,-0.811056,0.248087,-0.5130709999999999
1630678990240,-0.812886,0.24644,-0.510753
1630678990249,-0.815326,0.249002,-0.509777
1630678990259,-0.815387,0.251686,-0.510143
1630678990268,-0.815326,0.250466,-0.507093
1630678990278,-0.816546,0.253699,-0.506849
1630678990288,-0.819474,0.256444,-0.50874
1630678990297,-0.820206,0.25437,-0.513254
1630678990307,-0.820694,0.250649,-0.513803
1630678990316,-0.821121,0.247538,-0.5133759999999999
1630678990326,-0.820938,0.24522,-0.507337
1630678990336,-0.821792,0.247843,-0.503494
1630678990345,-0.820694,0.250405,-0.500566
1630678990355,-0.819962,0.251381,-0.499956
1630678990364,-0.818986,0.254614,-0.50203
1630678990374,-0.816668,0.257847,-0.501542
1630678990384,-0.818559,0.260531,-0.50081
1630678990393,-0.817339,0.257176,-0.501603
1630678990403,-0.8161189999999999,0.254919,-0.504836
1630678990412,-0.816058,0.255712,-0.508008
1630678990422,-0.816912,0.252296,-0.508252
1630678990432,-0.816851,0.253272,-0.507642
1630678990441,-0.81862,0.25315,-0.505385
1630678990451,-0.817827,0.252479,-0.505629
1630678990460,-0.816973,0.252296,-0.506666
