timestamp,ax,ay,az
1630679501062,0.165066,0.211487,0.411506
1630679501071,0.144875,0.17751,0.327204
1630679501081,0.102236,0.149206,0.247416
1630679501090,0.061061,0.091195,0.150365
1630679501100,0.028364999999999998,0.043188,0.057706
1630679501110,0.0017079999999999999,0.016409,-0.0035989999999999998
1630679501119,-0.002074,-0.007686,-0.009516
1630679501129,-0.00061,0.016287,0.041053
1630679501138,0.015127999999999999,0.052826,0.09516
1630679501148,0.047030999999999996,0.075213,0.114558
1630679501158,0.055327,0.094306,0.115534
1630679501167,0.046055,0.068442,0.08784
1630679501177,0.030134,0.017506999999999998,0.043188
1630679501186,0.00671,-0.031232,0.032757
1630679501196,-0.010309,-0.055876,0.083387
1630679501206,0.009516,-0.025498,0.23216599999999998
1630679501215,0.091622,0.127185,0.52521
1630679501225,0.196481,0.41412899999999997,0.947269
1630679501234,0.254065,0.609634,1.304668
1630679501244,0.2928,0.537532,1.332423
1630679501254,0.191296,0.329278,1.150948
1630679501263,0.085766,0.095465,1.033523
1630679501273,0.084302,0.003355,0.988688
1630679501282,0.048678,0.00732,1.051762
1630679501292,0.04453,0.179401,1.323151
1630679501302,0.126392,0.404979,1.7712569999999999
1630679501311,0.260714,0.5715089999999999,1.998604
1630679501321,0.174094,0.630313,1.998604
1630679501330,0.061549,0.517158,1.998604
1630679501340,0.07448099999999999,0.493307,1.998604
1630679501350,0.124684,0.638365,1.998604
1630679468502,0.171532,0.7506659999999999,1.998604
1630679468512,0.18178,0.704672,1.998604
1630679468521,0.145241,0.63318,1.873737
1630679468531,0.10498099999999999,0.545157,1.678537
1630679468541,0.077226,0.489464,1.492304
1630679468550,0.072712,0.429074,1.331691
1630679468560,0.089304,0.370514,1.180838
1630679468569,0.117852,0.331413,1.048529
1630679468579,0.1403,0.328729,0.949221
1630679468589,0.105652,0.317505,0.8568669999999999
1630679468598,0.09235399999999999,0.259006,0.736148
1630679468608,0.048129,0.19983599999999999,0.607743
1630679468617,0.034892,0.111447,0.46860199999999996
1630679468627,0.034892,0.059352999999999996,0.366793
1630679468637,0.03538,0.022265,0.28438199999999997
1630679468646,0.043981,0.016836,0.207034
1630679468656,0.051179,0.027694,0.135542
1630679468665,0.058682,0.042456,0.070089
1630679468675,0.045871999999999996,0.066978,0.035441
1630679468685,0.043066,0.078568,0.011956
1630679468694,0.037271,0.083448,-0.0008539999999999999
1630679468704,0.043248999999999996,0.073322,-0.016226
1630679468713,0.047519,0.050081,-0.03721
1630679468723,0.032452,0.011651,-0.06039
1630679468733,0.042151,-0.040748,-0.069235
1630679468742,0.060207,-0.059841,-0.031354
1630679468752,0.084241,-0.055937,0.065697
1630679468761,0.117852,-0.025376,0.18964899999999998
1630679468771,0.164273,-0.010369999999999999,0.36356
1630679468781,0.21337799999999998,0.144997,0.72163
1630679468790,0.270108,0.401075,1.199443
1630679468800,0.350628,0.49715,1.475102
1630679468809,0.35319,0.26291,1.297836
1630679468819,0.216428,0.105652,1.09739
1630679468829,0.268339,0.111203,1.0931199999999999
1630679468838,0.41168899999999997,0.126392,1.063901
1630679468848,0.394548,0.30317,1.163697
1630679468857,0.405101,0.522099,1.594845
1630679468867,0.49166,0.559309,1.987563
1630679468877,0.46738199999999996,0.563518,1.998604
1630679468886,0.434503,0.548512,1.998604
1630679468896,0.434686,0.559675,1.998604
1630679468905,0.44286,0.591334,1.998604
1630679468915,0.45078999999999997,0.623176,1.998604
1630679468925,0.42919599999999997,0.628971,1.9522439999999999
1630679468934,0.415532,0.6146969999999999,1.888438
1630679468944,0.41656899999999997,0.59841,1.850862
1630679468953,0.397354,0.5721189999999999,1.780041
1630679468963,0.391559,0.516487,1.653283
1630679468973,0.377529,0.44334799999999996,1.474126
1630679468982,0.357338,0.37899299999999997,1.283135
1630679468992,0.322507,0.347151,1.11935
1630679469001,0.288347,0.319457,0.970388
1630679469011,0.250344,0.295423,0.8294779999999999
1630679469021,0.21307299999999998,0.26187299999999997,0.6874089999999999
1630679469030,0.150792,0.224358,0.562298
1630679469040,0.11022699999999999,0.183549,0.451461
1630679469049,0.096136,0.139629,0.359046
1630679469059,0.077775,0.09211,0.263093
1630679469069,0.061488,0.045689,0.168299
1630679469078,0.040015999999999996,0.008845,0.082167
1630679469088,0.002928,-0.004392,0.028975
1630679469097,0.032452,-0.031476,0.015493999999999999
1630679469107,0.067893,0.036173,0.06039
1630679469117,0.088145,0.100406,0.126819
1630679469126,0.12395199999999999,0.109068,0.137372
1630679469136,0.116632,0.093147,0.10065
1630679469145,0.069784,0.060816999999999996,0.048007
1630679469155,0.036417,0.0183,0.011407
1630679469165,-0.008479,0.016958,0.044042
1630679469174,-0.0046359999999999995,0.04209,0.15359799999999998
1630679469184,0.022326,0.138531,0.388204
1630679469193,0.093818,0.302865,0.702964
1630679469203,0.200873,0.433405,0.9776469999999999
1630679469213,0.246074,0.42456,1.083238
1630679469222,0.189893,0.317749,1.030595
1630679469232,0.094794,0.15512299999999998,0.960262
1630679469241,0.090402,0.09333,1.041819
1630679469251,0.114131,0.107787,1.208593
1630679469261,0.237534,0.177388,1.356823
1630679469270,0.272182,0.35709399999999997,1.525
1630679469280,0.289506,0.75579,1.885937
1630679469289,0.444507,0.9736819999999999,1.998604
1630679469299,0.379115,0.954772,1.998604
1630679469309,0.236558,0.8130689999999999,1.998604
1630679469318,0.19886,0.685518,1.998604
1630679469328,0.179706,0.726632,1.998604
1630679469337,0.189771,0.6904589999999999,1.990125
1630679469347,0.20008,0.645197,1.880386
1630679469357,0.20227599999999998,0.590175,1.741489
1630679469366,0.190991,0.544181,1.5695299999999999
1630679469376,0.18422,0.481168,1.367742
1630679469385,0.174948,0.420046,1.1840709999999999
1630679469395,0.167689,0.375211,1.024434
1630679469405,0.170312,0.324581,0.88389
1630679469414,0.17055599999999999,0.259494,0.7607309999999999
1630679469424,0.17360599999999998,0.185867,0.666547
1630679469433,0.171044,0.115595,0.593164
1630679469443,0.154696,0.044712999999999996,0.5237459999999999
1630679469453,0.13078399999999998,-0.033672,0.431697
1630679469462,0.096685,-0.09174399999999999,0.316834
1630679469472,0.062525,-0.138958,0.194773
1630679469481,0.037515,-0.167689,0.093208
1630679469491,0.00042699999999999997,-0.15390299999999998,0.029768
1630679469501,-0.04697,-0.10248,0.001464
1630679469510,-0.054473,-0.088084,-0.002928
1630679469520,-0.05551,-0.055144,0.028059999999999998
1630679469529,-0.039710999999999996,-0.046787,0.063318
1630679469539,-0.009577,-0.067283,0.060268
1630679469549,0.006039,-0.074115,0.048068
1630679469558,0.029768,-0.042212,0.060511999999999996
1630679469568,0.030378,-0.110959,0.091561
1630679469577,0.096868,-0.116205,0.16469999999999999
1630679469587,0.149389,-0.029463,0.334829
1630679469597,0.245586,0.16097899999999998,0.634644
1630679469606,0.371978,0.414922,1.077382
1630679469616,0.472567,0.502152,1.361154
1630679469625,0.421632,0.313784,1.294542
1630679469635,0.268522,0.11254499999999999,1.059082
1630679469645,0.24540299999999998,-0.05795,0.8866959999999999
1630679469654,0.341844,0.087352,0.990762
1630679469664,0.46787,0.159576,1.030046
1630679469673,0.47153,0.372039,1.1767509999999999
1630679469683,0.601033,0.5663239999999999,1.618757
1630679469693,0.659349,0.574925,1.967555
1630679469702,0.604693,0.50447,1.998604
1630679469712,0.601216,0.459513,1.979023
1630679469721,0.64843,0.482815,1.9230859999999999
1630679469731,0.69784,0.552233,1.898747
1630679469741,0.733708,0.651236,1.897283
1630679469750,0.71309,0.65331,1.860317
1630679469760,0.690398,0.599447,1.793278
1630679469769,0.682163,0.555771,1.72325
1630679469779,0.662948,0.516975,1.607472
1630679469789,0.624823,0.46799199999999996,1.438075
1630679469798,0.576633,0.41351899999999997,1.246108
1630679469808,0.5167309999999999,0.364414,1.058106
1630679469817,0.456097,0.338916,0.910242
1630679469827,0.400526,0.310124,0.776286
1630679469837,0.339465,0.279502,0.660142
1630679469846,0.290848,0.262117,0.567727
1630679469856,0.250161,0.242414,0.48373
1630679469865,0.213927,0.194773,0.385581
1630679469875,0.167872,0.126636,0.26108
1630679469885,0.116754,0.080703,0.155611
1630679469894,0.076006,0.02196,0.056791
1630679469904,0.044102999999999996,-0.010431,0.004392
1630679469913,0.043615,-0.011712,-0.000549
1630679469923,0.055632,0.005246,0.027084
1630679469933,0.070394,0.05124,0.071614
1630679469942,0.09028,0.058011,0.105469
1630679469952,0.090707,0.059902,0.124135
1630679469961,0.039894,0.000549,0.085156
1630679469971,0.015006,-0.07381,0.052094
1630679469981,0.009271999999999999,-0.086071,0.096258
1630679469990,0.03721,-0.06954,0.247721
1630679470000,0.16897,0.138592,0.591334
1630679470009,0.37563799999999997,0.40199,1.015284
1630679470019,0.452254,0.5124609999999999,1.203347
1630679470029,0.395524,0.47763,1.19682
1630679470038,0.182085,0.16287,0.945744
1630679470048,0.072895,0.060451,0.8641869999999999
1630679470057,0.049958999999999996,0.045566999999999996,0.961604
1630679470067,0.06039,0.059657999999999996,1.097939
1630679470077,0.137738,0.236741,1.411479
1630679470086,0.24766,0.487268,1.8141399999999999
1630679470096,0.387228,0.6612399999999999,1.998604
1630679470105,0.41290899999999997,0.723155,1.998604
1630679470115,0.351238,0.6895439999999999,1.998604
1630679470125,0.271572,0.670573,1.998604
1630679470134,0.280356,0.697352,1.998604
1630679470144,0.305854,0.700768,1.998604
1630679470153,0.302316,0.673196,1.960418
1630679470163,0.270596,0.600362,1.846226
1630679470173,0.214476,0.499956,1.674389
1630679470182,0.177388,0.410042,1.498038
1630679470192,0.170007,0.340563,1.3398649999999999
1630679470201,0.174948,0.302194,1.213656
1630679470211,0.180072,0.27144999999999997,1.094279
1630679470221,0.178608,0.237046,0.969168
1630679470230,0.16713999999999998,0.191967,0.8516819999999999
1630679470240,0.156038,0.135786,0.734501
1630679470249,0.158112,0.07740899999999999,0.627019
1630679470259,0.159637,0.028609,0.525942
1630679470269,0.155062,-0.007686,0.437492
1630679470278,0.146888,-0.020679,0.33855
1630679470288,0.131638,-0.02989,0.256627
1630679470297,0.109678,-0.045871999999999996,0.168909
1630679470307,0.067954,-0.061488,0.07740899999999999
1630679470317,0.02623,-0.072102,0.018971
1630679470326,-0.01098,-0.062159,-0.013054
1630679470336,-0.021655,-0.048494999999999996,-0.010675
1630679470345,-0.003721,-0.042943999999999996,-0.001098
1630679470355,0.015982,-0.058987,-0.012383
1630679470365,0.034099,-0.095038,-0.038857
1630679470374,0.043981,-0.081984,-0.016836
1630679470384,0.100711,-0.044286,0.076067
1630679470393,0.182451,0.022021,0.240523
1630679470403,0.29731399999999997,0.126392,0.52277
1630679470413,0.437431,0.28731,0.9043249999999999
1630679470422,0.50996,0.446764,1.237202
1630679470432,0.485072,0.439871,1.299605
1630679470441,0.404674,0.195932,1.06018
1630679470451,0.318786,0.009089,0.824842
1630679470461,0.359656,0.022814,0.781166
1630679470470,0.47604399999999997,0.096014,0.880352
1630679470480,0.560712,0.177754,1.034743
1630679470489,0.610366,0.35678899999999997,1.420019
1630679470499,0.7537159999999999,0.510875,1.85135
1630679470509,0.738954,0.562847,1.998604
1630679470518,0.639463,0.465674,1.998604
1630679470528,0.592005,0.40058699999999997,1.8615979999999999
1630679470537,0.624396,0.483364,1.799256
1630679470547,0.641354,0.640073,1.8159699999999999
1630679470557,0.644465,0.685762,1.815299
1630679470566,0.650565,0.64111,1.7776619999999999
1630679470576,0.640927,0.596824,1.723616
1630679470585,0.626348,0.563335,1.636752
1630679470595,0.584624,0.508618,1.5074319999999999
1630679470605,0.537471,0.434869,1.3352899999999999
1630679470614,0.490257,0.366,1.151314
1630679470624,0.443226,0.319335,0.978684
1630679470633,0.38204299999999997,0.306647,0.841556
1630679470643,0.327448,0.32073799999999997,0.742126
1630679470653,0.271633,0.298046,0.633363
1630679470662,0.222345,0.280966,0.538752
1630679470672,0.18361,0.274378,0.456951
1630679470681,0.14310599999999998,0.210816,0.368013
1630679470691,0.103639,0.144326,0.268461
1630679470701,0.070699,0.054534,0.16165
1630679470710,0.041479999999999996,0.000244,0.074969
1630679470720,0.025803,-0.012749,0.043676
1630679470729,0.03538,0.004331,0.06478199999999999
1630679470739,0.065209,0.023058,0.109068
1630679470749,0.072041,0.014518,0.129137
1630679470758,0.067527,-0.015189,0.102297
1630679470768,0.053863,-0.014335,0.081008
1630679470777,0.043859,-0.014823,0.08588799999999999
1630679470787,0.021228,-0.011101999999999999,0.14835199999999998
1630679470797,0.029341,-0.010003999999999999,0.27999
1630679470806,0.116449,0.125965,0.554368
1630679470816,0.266143,0.407724,0.946964
1630679470825,0.36789099999999997,0.529053,1.180899
1630679470835,0.330071,0.44895999999999997,1.1749209999999999
1630679470845,0.163968,0.215269,1.008208
1630679470854,0.097356,0.028609,0.9003599999999999
1630679470864,0.06893,-0.002257,0.9699
1630679470873,0.112179,0.001586,1.12118
1630679470883,0.18727,0.111264,1.347124
1630679470893,0.289262,0.318725,1.689639
1630679470902,0.4697,0.549732,1.998604
1630679470912,0.507398,0.647576,1.998604
1630679470921,0.392352,0.622444,1.998604
1630679470931,0.307623,0.580232,1.998604
1630679470941,0.266021,0.576755,1.998604
1630679470950,0.299327,0.573766,1.998604
1630679470960,0.313479,0.56425,1.996286
1630679470969,0.30134,0.532347,1.905945
1630679470979,0.266631,0.492575,1.752408
1630679470989,0.225822,0.451949,1.556354
1630679470998,0.195383,0.394243,1.355847
1630679471008,0.188917,0.351421,1.181875
1630679471017,0.178364,0.329644,1.049505
1630679471027,0.170922,0.300425,0.934398
1630679471037,0.165432,0.282613,0.833321
1630679471046,0.168665,0.215391,0.721874
1630679471056,0.14835199999999998,0.151402,0.607804
1630679471065,0.139141,0.078629,0.506605
1630679471075,0.12383,0.041297,0.42273
1630679471085,0.126941,-0.038857,0.336232
1630679471094,0.103883,-0.037027,0.303231
1630679471104,0.090158,-0.043798,0.21337799999999998
1630679471113,0.061854,-0.058072,0.115717
1630679471123,0.010492,-0.06405,0.041846
1630679471133,-0.00488,-0.046787,0.0026839999999999998
1630679471142,-0.000122,-0.014029999999999999,-0.004392
1630679471152,0.008235,0.010369999999999999,0.017202
1630679471161,0.024583,-0.022203999999999998,0.013054
1630679471171,0.015493999999999999,-0.072346,-0.013603
1630679471181,0.011041,-0.08906,-0.02257
1630679471190,0.048373,-0.096624,-0.008173999999999999
1630679471200,0.103395,-0.070394,0.08973099999999999
1630679471209,0.172264,0.00042699999999999997,0.242292
1630679471219,0.252479,0.044347,0.479277
1630679471229,0.343735,0.321104,0.854915
1630679471238,0.481534,0.554124,1.249646
1630679471248,0.501054,0.45872,1.3240049999999999
1630679471257,0.40443,0.173545,1.12728
1630679471267,0.261324,0.042761,0.891637
1630679471277,0.30506099999999997,0.089975,0.807457
1630679471286,0.439932,0.18361,0.853939
1630679471296,0.520208,0.34343,1.034865
1630679471305,0.599203,0.527711,1.4560089999999999
1630679471315,0.738771,0.515633,1.808162
1630679471325,0.703696,0.536251,1.998604
1630679471334,0.6195769999999999,0.450058,1.998604
1630679471344,0.56303,0.369599,1.938885
1630679471353,0.569313,0.40668699999999997,1.842932
1630679471363,0.5876129999999999,0.509533,1.810358
1630679471373,0.612379,0.596214,1.792973
1630679471382,0.609634,0.624091,1.780224
1630679471392,0.601887,0.6189669999999999,1.751676
1630679471401,0.601094,0.575718,1.685918
1630679471411,0.579439,0.532286,1.5777649999999999
1630679471421,0.533018,0.46280699999999997,1.404708
1630679471430,0.481778,0.381799,1.20719
1630679471440,0.42767099999999997,0.327448,1.018578
1630679471449,0.381006,0.319701,0.866017
1630679471459,0.332267,0.332633,0.742614
1630679471469,0.281271,0.326533,0.6347659999999999
1630679471478,0.24265799999999998,0.324154,0.551623
1630679471488,0.203862,0.271877,0.466406
1630679471497,0.16104,0.21551299999999998,0.375394
1630679471507,0.14213,0.142557,0.273341
1630679471517,0.133346,0.092781,0.185684
1630679471526,0.134139,0.073444,0.126209
1630679471536,0.128893,0.088328,0.094306
1630679471545,0.108153,0.12456199999999999,0.090463
1630679471555,0.073993,0.139385,0.0732
1630679471565,0.036173,0.08723,0.037454
1630679471574,0.011467999999999999,0.041724,0.018361
1630679471584,-0.040504,0.016347999999999998,0.031049
1630679471593,-0.050447,-0.0070149999999999995,0.057706
1630679471603,-0.066124,0.017324,0.159332
1630679471613,-0.001281,0.124074,0.387777
1630679471622,0.137616,0.332328,0.721752
1630679471632,0.252418,0.450363,0.988688
1630679471641,0.270291,0.43602799999999997,1.093669
1630679471651,0.176046,0.302926,1.0553
1630679471661,0.042578,0.147925,0.989725
1630679471670,-0.011712,0.071492,1.023214
1630679471680,0.032147,0.018483,1.107699
1630679471689,0.12456199999999999,0.043859,1.265628
1630679471699,0.256139,0.216184,1.536102
1630679471709,0.359412,0.453413,1.851655
1630679471718,0.442311,0.58743,1.998604
1630679471728,0.371124,0.631289,1.998604
1630679471737,0.24881899999999998,0.567666,1.998604
1630679471747,0.214049,0.534909,1.986343
1630679471757,0.254553,0.584624,1.962431
1630679471766,0.287371,0.592859,1.9412639999999999
1630679471776,0.28285699999999997,0.541436,1.8381129999999999
1630679471785,0.265594,0.520269,1.7100739999999999
1630679471795,0.235216,0.506544,1.546472
1630679471805,0.200568,0.478118,1.368779
1630679471814,0.186782,0.460855,1.207556
1630679471824,0.18531799999999998,0.441457,1.071892
1630679471833,0.182634,0.41565399999999997,0.96319
1630679471843,0.180743,0.369294,0.867786
1630679471853,0.17238599999999998,0.31799299999999997,0.783484
1630679471862,0.162809,0.250954,0.69235
1630679471872,0.138592,0.154635,0.577914
1630679471881,0.111386,0.080215,0.4636
1630679471891,0.113948,0.042943999999999996,0.36417
1630679471901,0.115656,0.015311,0.277428
1630679471910,0.100589,0.0035989999999999998,0.209779
1630679471920,0.047824,-0.021716,0.13047899999999998
1630679471929,0.0023179999999999997,-0.05795,0.046055
1630679471939,-0.034892,-0.048251,0.012993
1630679471949,-0.033306,-0.044347,0.006222
1630679471958,-0.021106,-0.043981,0.027816
1630679471968,-0.002257,-0.09028,0.026718
1630679471977,0.001098,-0.131699,0.013237
1630679471987,0.003538,-0.155489,0.02013
1630679471997,0.013969,-0.156282,0.071187
1630679472006,0.075091,-0.097966,0.186721
1630679472016,0.14097099999999999,-0.021838,0.37063599999999997
1630679472025,0.22569999999999998,0.113277,0.6323259999999999
1630679472035,0.360693,0.411506,1.0340719999999999
1630679472045,0.45353499999999997,0.542473,1.3395599999999999
1630679472054,0.406504,0.258152,1.251781
1630679472064,0.200873,0.027755,1.016565
1630679472073,0.183976,0.002257,0.9566629999999999
1630679472083,0.389241,0.018543999999999998,1.068781
1630679472093,0.5124,0.091317,1.272399
1630679472102,0.648186,0.22661499999999998,1.507005
1630679472112,0.671366,0.38674,1.87392
1630679472121,0.684176,0.464698,1.998604
1630679472131,0.546133,0.463295,1.998604
1630679472141,0.459269,0.316102,1.998604
1630679472150,0.45933,0.314821,1.998604
1630679472160,0.501298,0.494527,1.998604
1630679472169,0.574376,0.635315,1.998604
1630679472179,0.597983,0.666791,1.99348
1630679472189,0.583526,0.64782,1.860622
1630679472198,0.532835,0.598837,1.691408
1630679472208,0.474458,0.524112,1.504321
1630679472217,0.40748,0.409859,1.297287
1630679472227,0.339343,0.281576,1.075369
1630679472237,0.28731,0.176046,0.88023
1630679472246,0.238388,0.189466,0.779763
1630679472256,0.184525,0.152744,0.69479
1630679472265,0.136213,0.121573,0.600911
1630679472275,0.139263,0.107482,0.533445
1630679472285,0.139995,0.102175,0.4819
1630679472294,0.08967,0.064111,0.413397
1630679472304,0.04087,0.013847,0.324764
1630679472313,0.015433,-0.02562,0.243024
1630679472323,0.004026,-0.058804,0.17915699999999998
1630679472333,0.009516,-0.089914,0.130052
1630679472342,0.038003,-0.091073,0.114802
1630679472352,0.075396,-0.057645,0.12071899999999999
1630679472361,0.09113399999999999,-0.02989,0.134688
1630679472371,0.095648,-0.036966,0.127734
1630679472381,0.089365,-0.053009,0.100162
1630679472390,0.064904,-0.083082,0.064904
1630679472400,0.020923,-0.100894,0.050873999999999996
1630679472409,-0.013663999999999999,-0.113216,0.06539199999999999
1630679472419,-0.020374,-0.098576,0.134261
1630679472429,0.014274,-0.01891,0.308782
1630679472438,0.1403,0.171349,0.6569699999999999
1630679472448,0.295301,0.361364,1.054751
1630679472457,0.387228,0.484279,1.3160749999999999
1630679472467,0.367403,0.38173799999999997,1.363716
1630679472477,0.198921,0.124501,1.196881
1630679472486,0.081374,-0.002074,1.076223
1630679472496,0.11834,0.023851,1.094157
1630679472505,0.172203,0.054046,1.173335
1630679472515,0.244122,0.241255,1.374879
1630679472525,0.347151,0.454267,1.677378
1630679472534,0.411567,0.506666,1.958161
1630679472544,0.405284,0.445849,1.998604
1630679472553,0.360876,0.344528,1.998604
1630679472563,0.39936699999999997,0.331901,1.998604
1630679472573,0.371185,0.48318099999999997,1.998604
1630679472582,0.320494,0.543693,1.93797
1630679472592,0.328424,0.510692,1.821521
1630679472601,0.337025,0.49471,1.7407569999999999
1630679472611,0.291336,0.453413,1.60308
1630679472621,0.243634,0.431514,1.429352
1630679472630,0.20044599999999999,0.418826,1.273314
1630679472640,0.198982,0.389851,1.145397
1630679472649,0.222162,0.348432,1.048468
1630679472659,0.262361,0.313418,0.978684
1630679472669,0.280295,0.25864,0.905484
1630679472678,0.24912399999999998,0.207339,0.792634
1630679472688,0.173728,0.125599,0.647332
1630679472697,0.08527799999999999,0.065758,0.490684
1630679472707,0.044591,0.023058,0.35441
1630679472717,0.017629,-0.0075639999999999995,0.262422
1630679472726,-0.012139,-0.012017,0.182939
1630679472736,-0.024949,-0.028304,0.102419
1630679472745,-0.04636,-0.024399999999999998,0.053375
1630679472755,-0.045933,-0.033549999999999996,0.033001
1630679472765,-0.035318999999999996,-0.043127,0.03477
1630679472774,-0.012565999999999999,-0.063318,0.045811
1630679472784,0.013603,-0.088023,0.038125
1630679472793,0.015127999999999999,-0.128466,0.011163
1630679472803,0.008845,-0.162199,0.025986
1630679472813,0.052399,-0.212097,0.071126
1630679472822,0.117059,-0.188917,0.22783499999999998
1630679472832,0.223504,-0.111508,0.52948
1630679472841,0.410713,0.084729,1.001254
1630679472851,0.587491,0.182085,1.350174
1630679472861,0.609573,0.121268,1.3790879999999999
1630679472870,0.428098,-0.015433,1.18279
1630679472880,0.302438,-0.199226,0.9455
1630679472889,0.314333,-0.196298,0.864858
1630679472899,0.363499,-0.146949,0.922808
1630679472909,0.458964,-0.058011,1.0894599999999999
1630679472918,0.607926,0.017751,1.453142
1630679472928,0.7589009999999999,-0.00793,1.775954
1630679472937,0.736453,0.009577,1.973655
1630679472947,0.644282,-0.047335999999999996,1.998604
1630679472957,0.609329,-0.135603,1.896368
1630679472966,0.62586,-0.141642,1.779919
1630679472976,0.648979,0.009516,1.777845
1630679472985,0.637267,0.113216,1.7909599999999999
1630679472995,0.679235,0.120841,1.786446
1630679473005,0.604571,0.18483,1.695556
1630679473014,0.543144,0.11114199999999999,1.522926
1630679473024,0.528931,0.091317,1.3842729999999999
1630679473033,0.528992,0.028426,1.239825
1630679473043,0.479826,-0.002074,1.106601
1630679473053,0.413885,-0.026474,0.993629
1630679473062,0.351848,-0.052094,0.891271
1630679473072,0.302743,-0.073078,0.791902
1630679473081,0.253638,-0.086986,0.701317
1630679473091,0.219905,-0.091317,0.622505
1630679473101,0.18995399999999998,-0.09991799999999999,0.547841
1630679473110,0.15616,-0.099247,0.452254
1630679473120,0.11962099999999999,-0.110105,0.352397
1630679473129,0.097356,-0.153171,0.230519
1630679473139,0.02745,-0.17141,0.139751
1630679473149,0.008967,-0.228018,0.056424999999999996
1630679473158,-0.009882,-0.167872,0.094855
1630679473168,0.043371,-0.126026,0.155916
1630679473177,0.093757,-0.127246,0.17360599999999998
1630679473187,0.075396,-0.187758,0.146095
1630679473197,0.045628,-0.203374,0.132126
1630679473206,0.047640999999999996,-0.188795,0.19367499999999999
1630679473216,0.065453,-0.125233,0.361852
1630679473225,0.17324,0.048556,0.692655
1630679473235,0.344406,0.13602999999999998,1.007293
1630679473245,0.375455,0.072529,1.084702
1630679473254,0.257115,-0.028121,1.0450519999999999
1630679473264,0.108153,-0.183122,0.978623
1630679473273,0.049409999999999996,-0.349347,0.966728
1630679473283,0.086315,-0.444934,1.031571
1630679473293,0.16744499999999998,-0.47726399999999997,1.121302
1630679473302,0.241499,-0.410957,1.287039
1630679473312,0.321226,-0.22082,1.572214
1630679473321,0.398208,-0.099552,1.810663
1630679473331,0.40211199999999997,-0.031171,1.967738
1630679473341,0.337635,-0.028426,1.998604
1630679473350,0.233935,-0.10668899999999999,1.923208
1630679473360,0.184464,-0.144692,1.8530579999999999
1630679473369,0.217831,-0.113216,1.874957
1630679473379,0.252723,-0.119865,1.866661
1630679473389,0.236314,-0.131089,1.773514
1630679473398,0.244549,-0.137616,1.663592
1630679473408,0.241499,-0.135908,1.530429
1630679473417,0.236436,-0.098332,1.397876
1630679473427,0.225517,-0.075213,1.250988
1630679473437,0.212646,-0.096746,1.112152
1630679473446,0.181902,-0.085644,0.975756
1630679473456,0.166896,-0.11376499999999999,0.847473
1630679473465,0.147071,-0.137921,0.724985
1630679473475,0.150548,-0.199409,0.623969
1630679473485,0.165188,-0.258335,0.552599
1630679473494,0.191845,-0.312564,0.487573
1630679473504,0.216428,-0.350201,0.422852
1630679473513,0.21594,-0.379176,0.337635
1630679473523,0.192516,-0.363438,0.232959
1630679473533,0.132858,-0.333792,0.14774199999999998
1630679473542,0.071492,-0.269254,0.085705
1630679473552,0.0427,-0.240401,0.045079
1630679473561,0.000244,-0.234423,-0.033489
1630679473571,-0.008967,-0.198311,-0.028487
1630679473581,0.018056,-0.204289,-0.020801
1630679473590,0.060695,-0.223748,0.012017
1630679473600,0.12261,-0.198006,0.102114
1630679473609,0.194041,-0.204899,0.22136899999999998
1630679473619,0.240401,-0.170068,0.44273799999999996
1630679473629,0.412116,0.051301,0.92903
1630679473638,0.630984,0.07679899999999999,1.181204
1630679473648,0.674721,0.032452,1.149057
1630679473657,0.546072,-0.059536,1.019676
1630679473667,0.455304,-0.236924,0.8608319999999999
1630679473677,0.434991,-0.371124,0.83143
1630679473686,0.535763,-0.453108,0.906277
1630679473696,0.7074779999999999,-0.435906,1.153571
1630679473705,0.958066,-0.342881,1.493219
1630679473715,1.003816,-0.20014099999999999,1.779736
1630679473725,0.992043,-0.181414,1.88612
1630679473734,0.885293,-0.18605,1.865014
1630679473744,0.805078,-0.304573,1.772599
1630679473753,0.757254,-0.351116,1.719712
1630679473763,0.772504,-0.303353,1.71837
1630679473773,0.760182,-0.21276799999999998,1.703791
1630679473782,0.732366,-0.156221,1.6662759999999999
1630679473792,0.707539,-0.14762,1.580998
1630679473801,0.687897,-0.16097899999999998,1.46156
1630679473811,0.629825,-0.192394,1.30052
1630679473821,0.562725,-0.209108,1.135271
1630679473830,0.460428,-0.225822,0.974414
1630679473840,0.363377,-0.215574,0.866139
1630679473849,0.30317,-0.187941,0.804041
1630679473859,0.237534,-0.191601,0.736758
1630679473869,0.17995,-0.213622,0.670207
1630679473878,0.147986,-0.253394,0.610549
1630679473888,0.122,-0.300486,0.5410699999999999
1630679473897,0.095404,-0.327509,0.4453
1630679473907,0.070821,-0.330681,0.343674
1630679473917,0.04209,-0.316224,0.254309
1630679473926,-0.000915,-0.268583,0.19550499999999998
1630679473936,0.001281,-0.19641999999999998,0.156953
1630679473945,0.011651,-0.121878,0.156709
1630679473955,0.012199999999999999,-0.080276,0.13725
1630679473965,-0.006405,-0.078507,0.096136
1630679473974,-0.032695999999999996,-0.093818,0.057401
1630679473984,-0.06649,-0.124501,0.035258
1630679473993,-0.081801,-0.149816,0.0732
1630679474003,-0.048068,-0.173911,0.16561499999999998
1630679474013,-0.014274,-0.194102,0.346358
1630679474022,0.1464,-0.03599,0.786778
1630679474032,0.39955,-0.005246,1.100379
1630679474041,0.48861,-0.177998,1.101111
1630679474051,0.336964,-0.377041,1.026508
1630679474061,0.15945399999999998,-0.635437,0.959591
1630679474070,0.137921,-0.773602,1.051518
1630679474080,0.275964,-0.842166,1.177544
1630679474089,0.37393,-0.8136789999999999,1.313086
1630679474099,0.498797,-0.579744,1.607716
1630679474109,0.574498,-0.379969,1.829634
1630679474118,0.533018,-0.285663,1.9662739999999999
1630679474128,0.5200859999999999,-0.28590699999999997,1.998604
1630679474137,0.480375,-0.252906,1.998604
1630679474147,0.42462099999999997,-0.219722,1.956026
1630679474157,0.414617,-0.126758,1.943277
1630679474166,0.410835,-0.067527,1.90198
1630679474176,0.37624799999999997,-0.013603,1.8260349999999999
1630679474185,0.335012,0.034587,1.7097689999999999
1630679474195,0.299815,0.08113,1.5658699999999999
1630679474205,0.259494,0.124684,1.4186159999999999
1630679474214,0.199958,0.14066599999999999,1.257271
1630679474224,0.139385,0.140422,1.095438
1630679474233,0.120292,0.131211,0.948367
1630679474243,0.11669299999999999,0.121756,0.8306979999999999
1630679474253,0.116022,0.093696,0.730231
1630679474262,0.131394,0.040809,0.634949
1630679474272,0.144448,-0.005063,0.56181
1630679474281,0.17812,-0.026962,0.482754
1630679474291,0.165981,-0.059962999999999995,0.360632
1630679474301,0.098576,-0.090402,0.204533
1630679474310,0.043859,-0.093147,0.077653
1630679474320,0.0075639999999999995,-0.079849,0.001586
1630679474329,-0.003294,-0.070394,-0.035318999999999996
1630679474339,0.013725,-0.054717,-0.048861
1630679474349,0.038308,-0.040809,-0.055327
1630679474358,0.067283,-0.052155,-0.07063799999999999
1630679474368,0.068076,-0.074786,-0.073017
1630679474377,0.083936,-0.07015,-0.0040869999999999995
1630679474387,0.135603,-0.08973099999999999,0.098576
1630679474397,0.188673,-0.078812,0.315004
1630679474406,0.360693,0.092537,0.788547
1630679474416,0.583648,0.145668,1.191757
1630679474425,0.6594099999999999,-0.017079999999999998,1.208349
1630679474435,0.49044,-0.069479,1.116361
1630679474445,0.346724,-0.195871,0.986309
1630679474454,0.342576,-0.240767,1.00101
1630679474464,0.47390899999999997,-0.335683,1.040904
1630679474473,0.637389,-0.339526,1.0882399999999999
1630679474483,0.753777,-0.130296,1.373354
1630679474493,0.8735809999999999,-0.007991,1.768573
1630679474502,0.892003,0.040626,1.972191
1630679474512,0.730231,0.014579,1.988783
1630679474521,0.664107,-0.065148,1.887584
1630679474531,0.658373,-0.092842,1.794254
1630679474541,0.7324269999999999,-0.004697,1.796511
1630679474550,0.807762,0.092903,1.771318
1630679474560,0.8008689999999999,0.178608,1.722518
1630679474569,0.7628659999999999,0.20843699999999998,1.622844
1630679474579,0.7157129999999999,0.194041,1.495354
1630679474589,0.678442,0.167384,1.378417
1630679474598,0.629154,0.132492,1.241777
1630679474608,0.5416799999999999,0.099308,1.0879349999999999
1630679474617,0.477996,0.07503,0.95343
1630679474627,0.417545,0.068869,0.855769
1630679474637,0.35678899999999997,0.033916,0.742553
1630679474646,0.279746,0.010248,0.643794
1630679474656,0.21472,-0.031964,0.532835
1630679474665,0.141154,-0.085766,0.405711
1630679474675,0.075152,-0.13786,0.282613
1630679474685,0.012871,-0.153842,0.18788
1630679474694,-0.0183,-0.155428,0.123708
1630679474704,-0.031842,-0.136274,0.093635
1630679474713,-0.026962,-0.084851,0.116632
1630679474723,0.0071979999999999995,-0.023119,0.16104
1630679474733,0.018483,-0.022143,0.164761
1630679474742,-0.0064659999999999995,-0.040382,0.141154
1630679474752,-0.046482,-0.061854,0.112301
1630679474761,-0.084851,-0.091622,0.101077
1630679474771,-0.125294,-0.121695,0.11730299999999999
1630679474781,-0.108641,-0.097112,0.221735
1630679474790,-0.015799,-0.012078,0.456768
1630679474800,0.178669,0.191967,0.885964
1630679474809,0.413946,0.314699,1.298263
1630679474819,0.460306,0.202825,1.3662779999999999
1630679474829,0.346175,0.097356,1.285148
1630679474838,0.127734,-0.070394,1.1320379999999999
1630679474848,0.055876,-0.165493,1.104771
1630679474857,0.100162,-0.226371,1.1788859999999999
1630679474867,0.15823399999999999,-0.265838,1.257698
1630679474877,0.2318,-0.129503,1.479067
1630679474886,0.33366999999999997,0.052704,1.788642
1630679474896,0.438224,0.149023,1.998604
1630679474905,0.46433199999999997,0.174887,1.998604
1630679474915,0.373625,0.116022,1.998604
1630679474925,0.300608,0.092842,1.938336
1630679474934,0.342088,0.163297,1.89344
1630679474944,0.383812,0.205814,1.864831
1630679474953,0.393938,0.216306,1.806576
1630679474963,0.409188,0.20496,1.694763
1630679474973,0.406565,0.18531799999999998,1.554829
1630679474982,0.396561,0.174521,1.411052
1630679474992,0.351238,0.167628,1.233603
1630679475001,0.301889,0.15311,1.052372
1630679475011,0.270047,0.150243,0.908473
1630679475021,0.27114499999999997,0.133041,0.813801
1630679475030,0.28102699999999997,0.093818,0.749873
1630679475040,0.284748,0.057706,0.694485
1630679475049,0.275415,0.013176,0.6183569999999999
1630679475059,0.24326799999999998,-0.034709,0.510265
1630679475069,0.203008,-0.071797,0.393877
1630679475078,0.143777,-0.097051,0.287066
1630679475088,0.086071,-0.095404,0.204899
1630679475097,0.034892,-0.06954,0.143838
1630679475107,0.001586,-0.047519,0.096868
1630679475117,-0.025559,-0.03843,0.044712999999999996
1630679475126,-0.046482,-0.028609,-0.011285
1630679475136,-0.064904,-0.007076,-0.028975
1630679475145,-0.065758,0.014945,0.002989
1630679475155,-0.062525,-0.002989,0.042395
1630679475165,-0.048494999999999996,-0.024461,0.104554
1630679475174,-0.009637999999999999,-0.01891,0.20862
1630679475184,0.044164,-0.003294,0.36911099999999997
1630679475193,0.15207299999999999,0.133224,0.683688
1630679475203,0.345565,0.30195,1.0955599999999999
1630679475213,0.479277,0.26596,1.260138
1630679475222,0.432978,0.062403,1.134905
1630679475232,0.364414,0.032879,1.0435269999999999
1630679475241,0.384971,0.125172,1.049566
1630679475251,0.426939,0.105347,1.092327
1630679475261,0.45261999999999997,-0.019337,1.112945
1630679475270,0.494283,-0.001098,1.261114
1630679475280,0.576084,0.062403,1.505236
1630679475289,0.61061,0.008967,1.72569
1630679475299,0.576023,-0.11669299999999999,1.825852
1630679475309,0.5374099999999999,-0.232959,1.8442129999999999
1630679475318,0.569618,-0.238754,1.852387
1630679475328,0.629276,-0.121512,1.892769
1630679475337,0.707722,0.044102999999999996,1.940715
1630679475347,0.720166,0.160735,1.918084
1630679475357,0.663802,0.209901,1.83122
1630679475366,0.610366,0.207034,1.722396
1630679475376,0.562786,0.178913,1.581608
1630679475385,0.51606,0.148596,1.4295959999999999
1630679475395,0.493856,0.113216,1.2670919999999999
1630679475405,0.444507,0.076128,1.104832
1630679475414,0.38491,0.059292,0.964654
1630679475424,0.324032,0.051667,0.840397
1630679475433,0.265655,0.058498999999999995,0.736636
1630679475443,0.209108,0.072346,0.660264
1630679475453,0.157746,0.069113,0.591761
1630679475462,0.115351,0.051727999999999996,0.53375
1630679475472,0.090768,0.018483,0.48348599999999997
1630679475481,0.069418,-0.038979,0.41717899999999997
1630679475491,0.052826,-0.070699,0.356301
1630679475501,0.056303,-0.069662,0.31537
1630679475510,0.069174,-0.041358,0.311832
1630679475520,0.084546,-0.014518,0.307989
1630679475529,0.079178,-0.015006,0.282674
1630679475539,0.050142,-0.033549999999999996,0.221125
1630679475549,0.002928,-0.051118,0.162382
1630679475558,-0.047335999999999996,-0.084668,0.103334
1630679475568,-0.0915,-0.11223999999999999,0.08174
1630679475577,-0.087535,-0.087962,0.134993
1630679475587,-0.058865,-0.038918,0.271206
1630679475597,0.04087,0.125233,0.551623
1630679475606,0.218075,0.366488,0.9563579999999999
1630679475616,0.348554,0.331718,1.1411879999999999
1630679475625,0.342881,0.217343,1.136247
1630679475635,0.265228,0.124196,1.150399
1630679475645,0.193797,-0.013603,1.164124
1630679475654,0.191357,-0.096319,1.205238
1630679475664,0.227591,-0.158478,1.270508
1630679475673,0.275049,-0.17147099999999998,1.343708
1630679475683,0.323178,-0.069357,1.500539
1630679475693,0.369843,0.038064,1.6757309999999999
1630679475702,0.43371,0.08881599999999999,1.811944
1630679475712,0.468724,0.13115,1.878678
1630679475721,0.475861,0.130662,1.870565
1630679475731,0.459086,0.140422,1.826706
1630679475741,0.468358,0.178669,1.792546
1630679475750,0.475922,0.203618,1.738012
1630679475760,0.437187,0.222223,1.654625
1630679475769,0.393206,0.213012,1.5315269999999999
1630679475779,0.352397,0.215452,1.395314
1630679475789,0.321409,0.224663,1.265445
1630679475798,0.292983,0.24235299999999999,1.159305
1630679475808,0.272609,0.257115,1.073356
1630679475817,0.249246,0.248087,0.9822219999999999
1630679475827,0.226188,0.23094599999999998,0.893772
1630679475837,0.216611,0.202459,0.805627
1630679475846,0.19397999999999999,0.162809,0.718824
1630679475856,0.177998,0.113216,0.636779
1630679475865,0.175558,0.069601,0.55083
1630679475875,0.16097899999999998,0.003843,0.451034
1630679475885,0.12627,-0.071614,0.353922
1630679475894,0.09211,-0.122793,0.264984
1630679475904,0.06508699999999999,-0.124501,0.207705
1630679475913,0.057401,-0.104432,0.178181
1630679475923,0.042456,-0.082716,0.138104
1630679475933,0.020557,-0.084729,0.069113
1630679475942,-0.00183,-0.077897,0.021655
1630679475952,0.000915,-0.058255,0.027877
1630679475961,0.049654,-0.041907,0.09143899999999999
1630679475971,0.12834399999999999,-0.038064,0.18379299999999998
1630679475981,0.239425,0.101992,0.416142
1630679475990,0.443104,0.32012799999999997,0.772992
1630679476000,0.587857,0.339953,1.008147
1630679476009,0.6110369999999999,0.11809599999999999,0.993324
1630679476019,0.59902,0.02013,0.927932
1630679476029,0.578219,0.00915,0.915
1630679476038,0.611281,0.020923,0.983503
1630679476048,0.640012,-0.071065,0.9903959999999999
1630679476057,0.650687,-0.210328,0.900848
1630679476067,0.710772,-0.013847,1.0444419999999999
1630679476077,0.756888,0.151646,1.335961
1630679476086,0.753594,0.11163,1.5132269999999999
1630679476096,0.7296819999999999,0.085156,1.599115
1630679476105,0.762317,0.064599,1.648403
1630679476115,0.833016,0.06801499999999999,1.6790859999999999
1630679476125,0.912133,0.178791,1.769854
1630679476134,0.947025,0.244854,1.796999
1630679476144,0.874374,0.216672,1.694275
1630679476153,0.778543,0.183915,1.568249
1630679476163,0.731268,0.159332,1.481812
1630679476173,0.7147979999999999,0.163358,1.4137359999999999
1630679476182,0.690642,0.101504,1.297958
1630679476192,0.6156119999999999,0.075152,1.181204
1630679476201,0.554368,0.040748,1.065182
1630679476211,0.477386,0.020739999999999998,0.956419
1630679476221,0.410103,0.017202,0.8608319999999999
1630679476230,0.347456,0.018117,0.7841549999999999
1630679476240,0.277245,0.001647,0.715286
1630679476249,0.220515,-0.029646,0.640134
1630679476259,0.193126,-0.038064,0.5721189999999999
1630679476269,0.166347,-0.051789,0.493612
1630679476278,0.133712,-0.080093,0.39772
1630679476288,0.11041,-0.063135,0.330132
1630679476297,0.096563,-0.002623,0.311832
1630679476307,0.113704,-0.014395999999999999,0.263825
1630679476317,0.061915,-0.010003999999999999,0.23863199999999998
1630679476326,0.041663,-0.08662,0.14945
1630679476336,0.005307,-0.108397,0.090219
1630679476345,-0.081618,-0.114497,0.093513
1630679476355,0.075091,-0.25315,-0.0015249999999999999
1630679476365,-0.019337,-0.20496,0.12566
1630679476374,0.086254,-0.114741,0.281088
1630679476384,0.153781,-0.009455,0.5225259999999999
1630679476393,0.29456899999999997,0.187941,0.852231
1630679476403,0.412055,0.297802,1.118374
1630679476413,0.452681,0.193309,1.154059
1630679476422,0.348798,0.072834,1.079822
1630679476432,0.25864,-0.065636,1.004426
1630679476441,0.241194,-0.177693,1.025166
1630679476451,0.289811,-0.260592,1.103673
1630679476461,0.351665,-0.268583,1.197857
1630679476470,0.433161,-0.162626,1.368474
1630679476480,0.504104,-0.038491,1.581974
1630679476489,0.598837,0.049593,1.756068
1630679476499,0.642452,0.080825,1.849825
1630679476509,0.6594099999999999,0.075335,1.830244
1630679476518,0.64111,0.121878,1.778089
1630679476528,0.599874,0.183732,1.744356
1630679476537,0.553758,0.17671699999999999,1.675609
1630679476547,0.541802,0.169824,1.605276
1630679476557,0.544608,0.168238,1.538176
1630679476566,0.531554,0.152195,1.446249
1630679476576,0.495442,0.148169,1.350784
1630679476585,0.461099,0.16036899999999998,1.26209
1630679476595,0.436089,0.147681,1.148142
1630679476605,0.399794,0.13450499999999999,1.020652
1630679476614,0.367952,0.141947,0.92293
1630679476624,0.338733,0.145241,0.8322229999999999
1630679476633,0.315248,0.144265,0.753899
1630679476643,0.288713,0.110654,0.675758
1630679476653,0.26839999999999997,0.069418,0.613111
1630679476662,0.236131,0.012078,0.547902
1630679476672,0.202215,-0.044469,0.467626
1630679476681,0.174643,-0.098027,0.377834
1630679476691,0.142618,-0.124684,0.305915
1630679476701,0.1098,-0.125477,0.26156799999999997
1630679476710,0.096441,-0.11834,0.235155
1630679476720,0.085522,-0.13480999999999999,0.196054
1630679476729,0.053985,-0.144875,0.148718
1630679476739,0.028304,-0.150731,0.112911
1630679476749,0.027755,-0.179279,0.086864
1630679476758,0.026413,-0.185135,0.10675
1630679476768,0.064355,-0.20660699999999999,0.15914899999999998
1630679476777,0.11730299999999999,-0.198311,0.257359
1630679476787,0.21106,-0.049593,0.544852
1630679476797,0.384605,0.13847,0.9782569999999999
1630679476806,0.502213,0.06893,1.217316
1630679476816,0.534909,-0.028548,1.2339689999999999
1630679476825,0.507398,-0.000122,1.1941359999999999
1630679476835,0.473116,-0.020862,1.065609
1630679476845,0.469456,-0.026352,0.981124
1630679476854,0.48678,-0.070211,0.921222
1630679476864,0.489403,-0.143716,0.8860859999999999
1630679476873,0.498065,-0.074054,1.070306
1630679476883,0.550464,-0.041663,1.324371
1630679476893,0.585844,-0.083692,1.456131
1630679476902,0.5164259999999999,-0.092293,1.590636
1630679476912,0.493002,-0.165432,1.643767
1630679476921,0.446276,-0.193614,1.8493979999999999
1630679476931,-0.260104,0.18666,1.420812
1630679476941,0.830576,-0.131272,1.8043799999999999
1630679476950,0.7044279999999999,-0.128039,1.7410619999999999
1630679476960,0.6864939999999999,0.030255999999999998,1.7134289999999999
1630679476969,0.606401,0.101809,1.580266
1630679476979,0.575413,0.09881999999999999,1.451983
1630679476989,0.528016,0.12139,1.352675
1630679476998,0.48061899999999996,0.112911,1.227442
1630679477008,0.504958,0.097966,1.0958649999999999
1630679477017,0.369355,0.068076,0.974109
1630679477027,0.355203,0.11102,0.877973
1630679477037,0.279014,0.014029999999999999,0.791597
1630679477046,0.294508,-0.108458,0.6941189999999999
1630679477056,0.311954,-0.068442,0.657946
1630679477065,0.153964,-0.155306,0.477325
1630679477075,0.044042,-0.112118,0.450607
1630679477085,-0.129747,-0.145851,0.339343
1630679477094,-0.027632999999999998,-0.131089,0.274622
1630679477104,0.036844,-0.23912,0.143167
1630679477113,0.095343,-0.210328,0.071919
1630679477123,0.141642,-0.152744,0.086742
1630679477133,0.144265,-0.141398,0.141398
1630679477142,0.121756,-0.183,0.175558
1630679477152,0.062952,-0.078324,0.265289
1630679477161,0.06893,-0.197152,0.32574
1630679477171,0.192638,-0.217282,0.518378
1630679477181,0.397781,-0.333304,0.659288
1630679477190,0.488549,-0.6125619999999999,0.659288
1630679477200,0.549427,-0.757803,0.655323
1630679477209,0.60329,-0.872544,0.68137
1630679477219,0.537227,-0.991738,0.712114
1630679477229,0.514108,-1.045723,0.708149
1630679477238,0.52094,-1.127707,0.661179
1630679477248,0.613355,-1.150033,0.71858
1630679477257,0.8072739999999999,-1.133746,0.888099
1630679477267,0.905179,-1.173152,1.019554
1630679477277,0.903959,-1.233603,1.160525
1630679477286,0.95587,-1.248426,1.119777
1630679477296,0.960079,-1.260809,1.039074
1630679477305,0.970205,-1.233542,0.962092
1630679477315,1.007293,-1.195844,0.923113
1630679477325,0.997594,-1.150399,0.8763259999999999
1630679477334,0.964898,-1.083421,0.862296
1630679477344,0.9706319999999999,-1.028155,0.801845
1630679477353,0.910608,-0.991067,0.719556
1630679477363,0.83875,-0.889868,0.651724
1630679477373,0.760182,-0.788608,0.600667
1630679477382,0.660752,-0.685335,0.541192
1630679477392,0.5967629999999999,-0.5937129999999999,0.460001
1630679477401,0.510082,-0.5419849999999999,0.36941599999999997
1630679477411,0.488854,-0.511729,0.25668799999999997
1630679477421,0.431087,-0.503433,0.104005
1630679477430,0.371734,-0.448777,-0.054717
1630679477440,0.30567099999999997,-0.487268,0.10431
1630679477449,0.198311,-0.412482,-0.090402
1630679477459,0.170434,-0.363499,-0.121207
1630679477469,0.088267,-0.276757,-0.117852
1630679477478,0.030927,-0.22143,-0.162626
1630679477488,0.00671,-0.18964899999999998,-0.193248
1630679477497,0.047092,-0.16775,-0.212036
1630679477507,0.041602,-0.213805,-0.267241
1630679477517,0.237778,-0.327204,-0.152317
1630679477526,0.197091,-0.347273,-0.180682
1630679477536,0.180865,-0.322507,-0.166469
1630679477545,0.258396,-0.372588,-0.148718
1630679477555,0.235094,-0.291153,-0.062952
1630679477565,0.379115,-0.233264,0.12486699999999999
1630679477574,0.605913,-0.31049,0.290299
1630679477584,0.728523,-0.44591,0.322141
1630679477593,0.737124,-0.572973,0.270413
1630679477603,0.8054439999999999,-0.6679499999999999,0.192699
1630679477613,0.909388,-0.727486,0.20618
1630679477622,0.992714,-0.84424,0.17263
1630679477632,0.985333,-0.957395,0.164212
1630679477641,1.05225,-0.909876,0.26718
1630679477651,1.078724,-0.908534,0.337452
1630679477661,1.2312239999999999,-1.050847,0.371734
1630679477670,1.301801,-1.173518,0.27511
1630679477680,1.3377299999999999,-1.265994,0.346358
1630679477689,1.42313,-1.286978,0.348798
1630679477699,1.505053,-1.2566,0.32134799999999997
1630679477709,1.518229,-1.1880359999999999,0.315248
1630679477718,1.526525,-1.138992,0.355142
1630679477728,1.506578,-1.051945,0.37124599999999996
1630679477737,1.434293,-1.053104,0.376736
1630679477747,1.334009,-0.970571,0.339648
1630679477757,1.183949,-0.915244,0.277062
1630679477766,0.959286,-0.869311,0.262971
1630679477776,0.761158,-0.741455,0.282186
1630679477785,0.531493,-0.639829,0.307989
1630679477795,0.600301,-0.626958,0.144448
1630679477805,0.41260399999999997,-0.624396,0.110593
1630679477814,0.372283,-0.520757,0.18971
1630679477824,0.261324,-0.48000899999999996,0.19397999999999999
1630679477833,0.251991,-0.485682,0.18422
1630679477843,0.231068,-0.440176,0.204899
1630679477853,0.128771,-0.342271,0.210633
1630679477862,0.037087999999999996,-0.257359,0.22326
1630679477872,0.027206,-0.138165,0.155794
1630679477881,-0.012688,-0.169702,0.098027
1630679477891,0.091256,-0.256566,0.033672
1630679477901,0.100101,-0.271572,0.075396
1630679477910,0.015982,-0.26992499999999997,0.167384
1630679477920,0.016347999999999998,-0.23924199999999998,0.245525
1630679477929,0.139751,-0.167018,0.396744
1630679477939,0.24034,-0.09394,0.493795
1630679477949,0.453474,-0.149206,0.609634
1630679477958,0.624945,-0.252235,0.743285
1630679477968,0.601094,-0.346663,0.859063
1630679477977,0.5681539999999999,-0.457073,0.943487
1630679477987,0.433588,-0.527833,1.053592
1630679477997,0.328119,-0.577304,1.16388
1630679478006,0.408395,-0.677771,1.152961
1630679478016,0.595787,-0.58255,1.312964
1630679478025,0.673623,-0.519842,1.427949
1630679478035,0.69601,-0.506422,1.5062119999999999
1630679478045,0.718885,-0.488732,1.638887
1630679478054,0.666547,-0.46909,1.703852
1630679478064,0.631838,-0.454206,1.699338
1630679478073,0.594994,-0.429562,1.758325
1630679478083,0.530944,-0.42614599999999997,1.771806
1630679478093,0.430538,-0.386862,1.7520419999999999
1630679478102,0.207156,-0.229604,1.748809
1630679478112,0.143716,-0.234484,1.605886
1630679478121,0.067832,-0.355142,1.482117
1630679478131,-0.0011589999999999999,-0.36728099999999997,1.3218699999999999
1630679478141,-0.0037819999999999998,-0.345138,1.24745
1630679478150,0.068747,-0.225273,1.1679059999999999
1630679478160,0.127063,-0.187941,0.974353
1630679478169,0.164029,-0.161345,0.812276
1630679478179,0.176778,-0.099796,0.654774
1630679478189,0.167323,-0.035929,0.51545
1630679478198,0.143472,-0.112301,0.412787
1630679478208,0.15359799999999998,-0.146339,0.306159
1630679478217,0.218563,-0.238388,0.22844499999999998
1630679478227,0.255163,-0.263093,0.197762
1630679478237,0.253089,-0.168177,0.199897
1630679478246,0.126514,-0.179035,0.150792
1630679478256,0.100772,-0.126209,0.149755
1630679478265,0.11041,-0.085522,0.155367
1630679478275,0.143045,-0.092598,0.132919
1630679478285,0.163114,-0.105042,0.119377
1630679478294,0.114619,-0.102236,0.112423
1630679478304,0.111508,-0.084241,0.149206
1630679478313,0.156038,-0.028853,0.23607
1630679478323,0.157258,-0.021167,0.291397
1630679478333,0.17641199999999999,0.09820999999999999,0.465979
1630679478342,0.264069,0.376309,0.767929
1630679478352,0.240767,0.402478,0.909937
1630679478361,0.265411,0.344284,1.020042
1630679478371,0.291397,0.314211,1.06323
1630679478381,0.245525,0.295972,1.129842
1630679478390,0.16500499999999999,0.277306,1.196576
1630679478400,0.09394,0.23460599999999998,1.171627
1630679478409,0.029951,0.32878999999999997,1.303326
1630679478419,-0.035563,0.425902,1.536956
1630679478429,-0.06283,0.427854,1.684088
1630679478438,-0.13115,0.388814,1.774185
1630679478448,-0.201788,0.35160399999999997,1.868552
1630679478457,-0.233752,0.321714,1.948523
1630679478467,-0.192394,0.197396,1.9862819999999999
1630679478477,-0.22752999999999998,0.069601,1.944436
1630679478486,-0.336964,0.121817,1.86233
1630679478496,-0.506788,0.211121,1.829939
1630679478505,-0.571692,0.187148,1.784616
1630679478515,-0.559248,0.136518,1.628456
1630679478525,-0.55205,0.109556,1.530368
1630679478534,-0.436882,0.051545,1.316807
1630679478544,-0.493002,0.037515,1.199199
1630679478553,-0.409554,0.005124,1.050054
1630679478563,-0.245769,-0.008235,0.765855
1630679478573,-0.289628,0.001403,0.7872049999999999
1630679478582,-0.30073,-0.003172,0.714676
1630679478592,-0.282064,-0.052948,0.60268
1630679478601,-0.20557,-0.048556,0.474092
1630679478611,-0.019459,-0.14188599999999998,0.34385699999999997
1630679478621,0.09516,-0.214049,0.16128399999999998
1630679478630,0.090341,-0.13054,0.2013
1630679478640,0.083082,-0.027206,0.184586
1630679478649,0.124745,-0.0055509999999999995,0.143472
1630679478659,0.08851099999999999,-0.0006709999999999999,0.110166
1630679478669,-0.129747,-0.144875,0.164273
1630679478678,0.025559,0.126941,-0.058316
1630679478688,0.11468,-0.036844,0.032269
1630679478697,-0.034526,-0.047519,-0.026900999999999998
1630679478707,0.013542,-0.084546,0.049898
1630679478717,-0.061854,0.012565999999999999,0.244427
1630679478726,-0.025986,0.027511,0.302621
1630679478736,-0.010369999999999999,0.081008,0.638975
1630679478745,0.010797,0.111874,0.97478
1630679478755,0.095526,0.031171,1.152107
1630679478765,0.155794,-0.053619,1.208654
1630679478774,0.192272,-0.186904,1.203103
1630679478784,0.12566,-0.36783,1.180838
1630679478793,0.07076,-0.414556,1.176324
1630679478803,0.019581,-0.36819599999999997,1.2367139999999999
1630679478813,-0.022692,-0.234423,1.396412
1630679478822,-0.01586,-0.17812,1.666398
1630679478832,-0.030134,-0.172874,1.859646
1630679478841,-0.087413,-0.17177599999999998,1.994944
1630679478851,-0.111752,-0.183366,1.998604
1630679478861,-0.029219,-0.221308,1.92516
1630679478870,-0.002562,-0.241865,1.822436
1630679478880,-0.047214,-0.209718,1.7964499999999999
1630679478889,-0.059292,-0.182634,1.801208
1630679478899,-0.035197,-0.170739,1.732888
1630679478909,-0.021289,-0.18544,1.595089
1630679478918,0.00122,-0.184891,1.4535689999999999
1630679478928,0.000305,-0.170434,1.311012
1630679478937,-0.008784,-0.153354,1.163514
1630679478947,-0.011895,-0.12486699999999999,1.074271
1630679478957,0.012871,-0.072712,1.002962
1630679478966,0.064416,-0.033977,0.922015
1630679478976,0.078568,-0.089548,0.775066
1630679478985,0.078812,-0.106506,0.660691
1630679478995,0.08942599999999999,-0.120963,0.530151
1630679479005,0.079788,-0.113887,0.446398
1630679479014,0.164517,-0.148474,0.324276
1630679479024,0.216672,-0.180499,0.238144
1630679479033,0.220027,-0.18903899999999998,0.182085
1630679479043,0.250588,-0.21770899999999999,0.144509
1630679479053,0.181902,-0.26047,0.031293
1630679479062,0.128466,-0.191235,0.052826
1630679479072,0.10668899999999999,-0.189527,0.09759999999999999
1630679479081,0.151829,-0.201605,0.120597
1630679479091,0.156648,-0.286456,0.059109
1630679479101,0.231129,-0.28609,0.112972
1630679479110,0.273951,-0.277184,0.208681
1630679479120,0.412238,-0.127612,0.434198
1630679479129,0.618296,-0.04453,0.7604259999999999
1630679479139,0.7616459999999999,-0.115656,1.056032
1630679479149,0.779214,-0.162077,1.1271579999999999
1630679479158,0.8066639999999999,-0.235033,1.0912899999999999
1630679479168,0.8535119999999999,-0.270596,1.041819
1630679479177,0.7102229999999999,-0.246989,0.9384239999999999
1630679479187,0.69845,-0.248636,0.8754109999999999
1630679479197,0.68869,-0.191601,0.992104
1630679479206,0.750361,-0.175009,1.176629
1630679479216,0.7144929999999999,-0.285968,1.341634
1630679479225,0.728889,-0.41602,1.47071
1630679479235,0.559004,-0.361486,1.697508
1630679479245,0.712907,-0.361059,1.6574309999999999
1630679479254,0.694363,-0.34831,1.653954
1630679479264,0.700097,-0.207766,1.642364
1630679479273,0.646478,0.0050019999999999995,1.628944
1630679479283,0.767807,0.019398,1.613755
1630679479293,0.732976,0.016531,1.54086
1630679479302,0.821121,-0.010003999999999999,1.473211
1630679479312,0.77348,-0.039955,1.359751
1630679479321,0.596885,-0.068259,1.28527
1630679479331,0.528504,-0.063074,1.1916959999999999
1630679479341,0.490684,-0.151646,1.052799
1630679479350,0.374296,-0.184159,0.95343
1630679479360,0.38125,-0.170434,0.865346
1630679479369,0.345809,-0.181841,0.773602
1630679479379,0.192028,-0.220698,0.673318
1630679479389,0.10345599999999999,-0.094123,0.586759
1630679479398,0.04819,-0.059719,0.528748
1630679479408,0.311283,-0.347029,0.482144
1630679479417,0.230275,-0.216916,0.404369
1630679479427,0.15359799999999998,-0.137921,0.20984
1630679479437,0.030134,-0.111203,0.139019
1630679479446,-0.053314,-0.060451,0.180865
1630679479456,-0.09698999999999999,-0.029707,0.204411
1630679479465,-0.160186,-0.0015249999999999999,0.18781899999999999
1630679479475,-0.175192,0.01647,0.130967
1630679479485,-0.165981,-0.027511,0.097417
1630679479494,-0.180133,-0.107055,0.09991799999999999
1630679479504,-0.179218,-0.106567,0.130052
1630679479513,-0.146156,-0.10797,0.247965
1630679479523,-0.038491,-0.034343,0.456524
1630679479533,0.108519,0.144448,0.811666
1630679479542,0.171959,0.218563,1.095804
1630679479552,0.149206,0.157441,1.253611
1630679479561,0.118889,-0.041968,1.271911
1630679479571,0.116815,-0.20496,1.27734
1630679479581,0.081374,-0.301035,1.261602
1630679479590,-0.076128,-0.310856,1.2884419999999999
1630679479600,-0.251808,-0.238388,1.347307
1630679479609,-0.366244,-0.16591999999999998,1.5217669999999999
1630679479619,-0.425292,-0.038491,1.680794
1630679479629,-0.46543,0.076372,1.828658
1630679479638,-0.553209,0.128222,1.891122
1630679479648,-0.600362,0.124501,1.85196
1630679479657,-0.612196,0.085339,1.7477719999999999
1630679479667,-0.601704,0.141825,1.679452
1630679479677,-0.574315,0.18409799999999998,1.636691
1630679479686,-0.5477799999999999,0.196237,1.581913
1630679479696,-0.518134,0.180804,1.512129
1630679479705,-0.495442,0.178608,1.399645
1630679479715,-0.448228,0.18501299999999998,1.309914
1630679479725,-0.399184,0.161467,1.224148
1630679479734,-0.38295799999999997,0.137982,1.112091
1630679479744,-0.364658,0.15982,1.006561
1630679479753,-0.350384,0.146888,0.867237
1630679479763,-0.30256,0.071309,0.745359
1630679479773,-0.25071,-0.00671,0.6466
1630679479782,-0.170312,0.019459,0.587735
1630679479792,-0.184769,-0.05002,0.459818
1630679479801,-0.120414,-0.116205,0.387289
1630679479811,-0.080886,-0.146339,0.302804
1630679479821,-0.049288,-0.18117,0.250893
1630679479830,-0.023424,-0.145668,0.230153
1630679479840,-0.016958,-0.086925,0.209108
1630679479849,-0.020618,-0.08174,0.196176
1630679479859,-0.018239,-0.091012,0.199958
1630679479869,-0.004514,-0.10577399999999999,0.180743
1630679479878,-0.0030499999999999998,-0.137433,0.195322
1630679479888,-0.020862,-0.127124,0.250893
1630679479897,-0.040015999999999996,-0.089487,0.327265
1630679479907,-0.066795,-0.021533,0.438285
1630679479917,-0.12364699999999999,0.169214,0.629947
1630679479926,-0.191845,0.404186,0.83143
1630679479936,-0.222955,0.462929,0.907314
1630679479945,-0.195566,0.420534,0.9472079999999999
1630679479955,-0.219112,0.38051799999999997,1.034499
1630679479965,-0.262849,0.38856999999999997,1.131672
1630679479974,-0.373564,0.410896,1.252147
1630679479984,-0.44652,0.41907,1.289418
1630679479993,-0.413336,0.478362,1.38104
1630679480003,-0.371734,0.44243299999999997,1.473211
1630679480013,-0.3538,0.47336,1.636203
1630679480022,-0.316407,0.461404,1.7718669999999999
1630679480032,-0.271389,0.485438,1.882216
1630679480041,-0.216245,0.522282,1.936506
1630679480051,-0.215391,0.601643,1.921805
1630679480061,-0.23619199999999999,0.704489,1.884534
1630679480070,-0.257725,0.699975,1.8089549999999999
1630679480080,-0.277611,0.670451,1.712758
1630679480089,-0.29212899999999997,0.645868,1.611864
1630679480099,-0.294508,0.6180519999999999,1.514996
1630679480109,-0.277611,0.532164,1.397205
1630679480118,-0.264435,0.449997,1.2716669999999999
1630679480128,-0.252113,0.367647,1.147593
1630679480137,-0.237778,0.270718,1.020286
1630679480147,-0.234545,0.20191,0.881694
1630679480157,-0.223748,0.146888,0.731573
1630679480166,-0.191052,0.11486299999999999,0.627568
1630679480176,-0.159393,0.067771,0.5422899999999999
1630679480185,-0.116144,0.026718,0.461831
1630679480195,-0.072041,-0.00488,0.408456
1630679480205,-0.04636,-0.041602,0.339404
1630679480214,-0.02745,-0.058133,0.260226
1630679480224,-0.018056,-0.055815,0.196603
1630679480233,-0.023424,-0.035258,0.153415
1630679480243,-0.03538,-0.016958,0.10638399999999999
1630679480253,-0.036478,0.013663999999999999,0.075579
1630679480262,-0.036051,0.010858,0.060573
1630679480272,-0.033611,-0.019642,0.028914
1630679480281,-0.029646,-0.045689,0.0051849999999999995
1630679480291,-0.044835,-0.042822,0.004331
1630679480301,-0.069113,-0.014274,0.05978
1630679480310,-0.112911,0.04514,0.161833
1630679480320,-0.184647,0.20984,0.344345
1630679480329,-0.273707,0.4575,0.604632
1630679480339,-0.35404399999999997,0.544547,0.824781
1630679480349,-0.45322999999999997,0.46860199999999996,0.972096
1630679480358,-0.550769,0.31951799999999997,1.066829
1630679480368,-0.6076819999999999,0.167567,1.100562
1630679480377,-0.678381,0.10553,1.10471
1630679480387,-0.823927,0.146888,1.149972
1630679480397,-0.996435,0.306464,1.266604
1630679480406,-1.167662,0.488305,1.463451
1630679480416,-1.302289,0.6365959999999999,1.680245
1630679480425,-1.388299,0.675392,1.803831
1630679480435,-1.392508,0.603473,1.815848
1630679480445,-1.336937,0.525637,1.72752
1630679480454,-1.280268,0.522282,1.614365
1630679480464,-1.229028,0.513132,1.539884
1630679480473,-1.173762,0.48495,1.502918
1630679480483,-1.097573,0.41602,1.435818
1630679480493,-1.005768,0.327997,1.3325449999999999
1630679480502,-0.910486,0.279014,1.202005
1630679480512,-0.814655,0.264008,1.067012
1630679480521,-0.702842,0.253943,0.922076
1630679480531,-0.593469,0.21838,0.7887299999999999
1630679480541,-0.500261,0.174521,0.687958
1630679480550,-0.410347,0.122793,0.605791
1630679480560,-0.33000999999999997,0.049471,0.543144
1630679480569,-0.24570799999999998,-0.026474,0.464088
1630679480579,-0.164639,-0.069662,0.39436499999999997
1630679480589,-0.105164,-0.12395199999999999,0.304878
1630679480598,-0.055570999999999995,-0.173057,0.214842
1630679480608,-0.024583,-0.192821,0.15189
1630679480617,-0.015677,-0.196176,0.10614
1630679480627,-0.013908,-0.17299599999999998,0.056974
1630679480637,-0.017079999999999998,-0.156221,0.022082
1630679480646,-0.008539999999999999,-0.140788,0.009637999999999999
1630679480656,0.011101999999999999,-0.130601,0.021594
1630679480665,0.023058,-0.155855,0.030683
1630679480675,0.033306,-0.169214,0.051484
1630679480685,0.029463,-0.157746,0.089243
1630679480694,0.02013,-0.122122,0.11529
1630679480704,0.00122,-0.058193999999999996,0.186965
1630679480713,-0.001098,0.003294,0.269559
1630679480723,-0.043371,0.21167,0.472018
1630679480733,-0.101931,0.49580799999999997,0.830027
1630679480742,-0.184647,0.48745099999999997,1.051518
1630679480752,-0.228628,0.392352,1.108492
1630679480761,-0.238266,0.333304,1.195539
1630679480771,-0.248453,0.272182,1.272216
1630679480781,-0.270657,0.29578899999999997,1.351882
1630679480790,-0.335134,0.43572299999999997,1.46095
1630679480800,-0.440542,0.5435099999999999,1.636752
1630679480809,-0.58499,0.574437,1.830732
1630679480819,-0.696437,0.60268,1.985306
1630679480829,-0.744017,0.55998,1.998604
1630679480838,-0.742065,0.500688,1.998604
1630679480848,-0.712541,0.502213,1.998604
1630679480857,-0.689666,0.554856,1.934432
1630679480867,-0.686677,0.629093,1.87209
1630679480877,-0.670024,0.655811,1.817434
1630679480886,-0.6201869999999999,0.632265,1.7416719999999999
1630679480896,-0.546499,0.573278,1.614365
1630679480905,-0.448777,0.478057,1.4599739999999999
1630679480915,-0.363011,0.383934,1.307474
1630679480925,-0.294752,0.30536599999999997,1.154303
1630679480934,-0.276147,0.27083999999999997,1.004914
1630679480944,-0.23302,0.225578,0.871995
1630679480953,-0.177754,0.13663999999999998,0.748958
1630679480963,-0.150243,0.07259,0.6119519999999999
1630679480973,-0.169153,0.097234,0.562237
1630679480982,-0.097173,0.05246,0.48434
1630679480992,-0.095709,0.056608,0.415227
1630679481001,-0.111691,0.044896,0.315675
1630679481011,-0.071126,-0.0064659999999999995,0.202703
1630679481021,-0.072285,-0.023058,0.119438
1630679481030,-0.051727999999999996,0.000244,0.074359
1630679481040,-0.043005,0.028304,0.04453
1630679481049,-0.02989,0.033794,-0.00976
1630679481059,-0.01281,0.049776,-0.0366
1630679481069,0.006222,0.018422,-0.061366
1630679481078,-0.13047899999999998,0.0053679999999999995,0.037698
1630679481088,-0.013542,-0.009394,0.0042699999999999995
1630679481097,-0.015555,-0.030073,-0.000366
1630679481107,-0.130418,0.023302,0.098942
1630679481117,-0.044347,0.16408999999999999,0.231373
1630679481126,-0.339526,0.185867,0.501298
1630679481136,-0.384422,0.35251899999999997,0.726998
1630679481145,-0.382897,0.404491,0.903898
1630679481155,-0.545767,0.317322,1.021262
1630679481165,-0.534482,0.278404,1.100623
1630679481174,-0.512644,0.20752199999999998,1.167052
1630679481184,-0.551989,0.132065,1.167113
1630679481193,-0.733403,0.145424,1.167235
1630679481203,-0.979233,0.234667,1.213839
1630679481213,-1.149362,0.361913,1.426729
1630679481222,-1.24318,0.411872,1.5802049999999999
1630679481232,-1.321199,0.405528,1.728191
1630679481241,-1.348405,0.368745,1.8080399999999999
1630679481251,-1.336327,0.335622,1.766926
1630679481261,-1.2759369999999999,0.32909499999999997,1.67811
1630679481270,-1.241045,0.337208,1.603324
1630679481280,-1.1810209999999999,0.305854,1.507676
1630679481289,-1.062681,0.250344,1.382565
1630679481299,-0.981124,0.234484,1.255441
1630679481309,-0.903288,0.235704,1.138321
1630679481318,-0.794098,0.21167,1.013454
1630679481328,-0.691313,0.198921,0.900909
1630679481337,-0.606584,0.191235,0.796721
1630679481347,-0.507764,0.1708,0.721081
1630679481357,-0.413641,0.146156,0.6445259999999999
1630679481366,-0.337879,0.12254899999999999,0.57462
1630679481376,-0.268888,0.07503,0.49763799999999997
1630679481385,-0.191418,0.02135,0.433466
1630679481395,-0.12023099999999999,-0.033123,0.381006
1630679481405,-0.053131,-0.089304,0.28590699999999997
1630679481414,0.002989,-0.149816,0.20904699999999998
1630679481424,0.032574,-0.181536,0.180987
1630679481433,0.015189,-0.164517,0.15512299999999998
1630679481443,0.046482,-0.159942,0.137128
1630679481453,0.046299,-0.169458,0.101626
1630679481462,0.028548,-0.169214,0.114985
1630679481472,0.041297,-0.158173,0.114314
1630679481481,0.07747,-0.161833,0.124135
1630679481491,0.022082,-0.127368,0.16775
1630679481501,0.022814,-0.086742,0.205509
1630679481510,-0.004026,-0.057096,0.284199
1630679481520,-0.095709,0.130967,0.517219
1630679481529,-0.232898,0.352092,0.878644
1630679481539,-0.428342,0.455914,1.19072
1630679481549,-0.437797,0.35617899999999997,1.294542
1630679481558,-0.349042,0.322751,1.20231
1630679481568,-0.275293,0.22447999999999999,1.165039
1630679481577,-0.194346,0.166896,1.089216
1630679481587,-0.19397999999999999,0.228689,1.151253
1630679481597,-0.296582,0.366549,1.309548
1630679481606,-0.361364,0.365512,1.489864
1630679481616,-0.418216,0.351299,1.738134
1630679481625,-0.5666289999999999,0.32147,1.845189
1630679481635,-0.57401,0.15555,1.925648
1630679481645,-0.735965,0.298473,1.939556
1630679481654,-0.805688,0.38143299999999997,1.8834359999999999
1630679481664,-0.7415769999999999,0.45170499999999997,1.823412
1630679481673,-0.792573,0.513132,1.754726
1630679481683,-0.8145939999999999,0.522343,1.673169
1630679481693,-0.7753099999999999,0.506971,1.5971629999999999
1630679481702,-0.748165,0.469578,1.489925
1630679481712,-0.691008,0.445422,1.335961
1630679481721,-0.602619,0.38552,1.207129
1630679481731,-0.5361899999999999,0.357765,1.066402
1630679481741,-0.482144,0.31964,0.93879
1630679481750,-0.446642,0.28731,0.8100189999999999
1630679481760,-0.399794,0.245037,0.7321219999999999
1630679481769,-0.356118,0.134444,0.645075
1630679481779,-0.322629,0.129076,0.5608339999999999
1630679481789,-0.25742,0.059657999999999996,0.49111099999999996
1630679481798,-0.20380099999999998,0.027632999999999998,0.451217
1630679481808,-0.127185,-0.0305,0.349896
1630679481817,-0.07063799999999999,-0.044102999999999996,0.277733
1630679481827,-0.035807,-0.08790099999999999,0.205509
1630679481837,-0.008967,-0.108153,0.14579
1630679481846,0.016226,-0.113277,0.109495
1630679481856,0.004514,-0.097844,0.09943
1630679481865,-0.012505,-0.033062,0.112301
1630679481875,-0.012139,-0.021411,0.09638
1630679481885,-0.034343,-0.036844,0.050263999999999996
1630679481894,-0.041479999999999996,-0.057523,0.026962
1630679481904,-0.048739,-0.077836,0.041174999999999996
1630679481913,-0.078751,-0.042943999999999996,0.13054
1630679481923,-0.132309,0.029402,0.29036
1630679481933,-0.220576,0.157624,0.532591
1630679481942,-0.3233,0.298656,0.843569
1630679481952,-0.400404,0.357216,1.046821
1630679481961,-0.471591,0.332267,1.145885
1630679481971,-0.525759,0.21899,1.167418
1630679481981,-0.532103,0.067466,1.13521
1630679481990,-0.573644,0.036356,1.160769
1630679482000,-0.667218,0.084729,1.229577
1630679482009,-0.763415,0.208315,1.389092
1630679482019,-0.843569,0.31921299999999997,1.597712
1630679482029,-0.87352,0.413031,1.7730869999999999
1630679482038,-0.883829,0.437065,1.9032609999999999
1630679482048,-0.850035,0.41595899999999997,1.96847
1630679482057,-0.813252,0.37563799999999997,1.94468
1630679482067,-0.776408,0.369233,1.875445
1630679482077,-0.7370019999999999,0.390217,1.799134
1630679482086,-0.761585,0.34721199999999997,1.7657669999999999
1630679482096,-0.68198,0.305,1.6769509999999999
1630679482105,-0.635559,0.249612,1.551352
1630679482115,-0.586149,0.202825,1.391593
1630679482125,-0.528443,0.18470799999999998,1.22915
1630679482134,-0.467138,0.192577,1.093181
1630679482144,-0.40748,0.19825,0.967155
1630679482153,-0.349103,0.190015,0.850706
1630679482163,-0.277794,0.155001,0.7610359999999999
1630679482173,-0.215452,0.12566,0.6883239999999999
1630679482182,-0.151707,0.07259,0.628361
1630679482192,-0.081618,0.011529,0.540704
1630679482201,-0.020435,-0.059902,0.46860199999999996
1630679482211,0.029828999999999998,-0.11962099999999999,0.393206
1630679482221,0.073322,-0.177998,0.312076
1630679482230,0.10126,-0.20984,0.247721
1630679482240,0.106872,-0.210755,0.190198
1630679482249,0.098332,-0.189588,0.15237799999999999
1630679482259,0.087596,-0.16897,0.14701
1630679482269,0.073322,-0.16036899999999998,0.11608299999999999
1630679482278,0.073688,-0.16128399999999998,0.091317
1630679482288,0.079178,-0.163114,0.073749
1630679482297,0.095831,-0.161772,0.07747
1630679482307,0.109556,-0.165127,0.096136
1630679482317,0.118523,-0.174155,0.121695
1630679482326,0.114192,-0.14945,0.198799
1630679482336,0.068259,-0.09211,0.326289
1630679482345,0.006161,0.047702,0.555527
1630679482355,-0.110776,0.269254,0.896029
1630679482365,-0.194834,0.328241,1.105991
1630679482374,-0.228811,0.232837,1.144909
1630679482384,-0.29334899999999997,0.199592,1.192123
1630679482393,-0.28365,0.21459799999999998,1.209874
1630679482403,-0.286517,0.251137,1.214876
1630679482413,-0.331352,0.35465399999999997,1.268434
1630679482422,-0.4148,0.457012,1.38409
1630679482432,-0.467809,0.5234409999999999,1.544459
1630679482441,-0.513315,0.49641799999999997,1.721298
1630679482451,-0.546499,0.412482,1.886242
1630679482461,-0.531676,0.34233199999999997,1.998604
1630679482470,-0.50874,0.302072,1.998604
1630679482480,-0.493124,0.35258,1.998604
1630679482489,-0.474336,0.440725,1.998604
1630679482499,-0.45383999999999997,0.476715,1.96725
1630679482509,-0.423828,0.4575,1.898503
1630679482518,-0.385764,0.416996,1.788642
1630679482528,-0.340624,0.357826,1.640656
1630679482537,-0.288286,0.271572,1.455216
1630679482547,-0.231312,0.196786,1.2762419999999999
1630679482557,-0.190015,0.148169,1.119045
1630679482566,-0.172508,0.138958,0.980148
1630679482576,-0.163175,0.124013,0.858636
1630679482585,-0.150914,0.094916,0.7650009999999999
1630679482595,-0.13419999999999999,0.079056,0.704977
1630679482605,-0.113277,0.053558,0.648552
1630679482614,-0.07911699999999999,0.031171,0.564982
1630679482624,-0.030744,-0.011346,0.450607
1630679482633,0.010553,-0.052032999999999996,0.356301
1630679482643,0.029158,-0.082716,0.28133199999999997
1630679482653,0.032635,-0.097478,0.244976
1630679482662,0.020557,-0.088328,0.22844499999999998
1630679482672,0.023912,-0.070821,0.20691199999999998
1630679482681,0.047092,-0.08662,0.15481799999999998
1630679482691,0.055693,-0.087657,0.097844
1630679482701,0.022143,-0.055876,0.069906
1630679482710,0.047397,-0.07747,0.030622
1630679482720,-0.031476,-0.060756,-0.033428
1630679482729,-0.13572499999999998,-0.018849,0.009821
1630679482739,-0.163297,-0.01464,0.119804
1630679482749,-0.14896199999999998,-0.036966,0.296948
1630679482758,-0.23064099999999998,0.055693,0.554917
1630679482768,-0.31415,0.149999,0.811971
1630679482777,-0.386252,0.157624,1.004548
1630679482787,-0.544181,0.120292,1.065243
1630679482797,-0.602314,0.040809,1.080554
1630679482806,-0.59109,-0.04697,1.080859
1630679482816,-0.6177469999999999,-0.103334,1.118862
1630679482825,-0.737734,-0.098149,1.217682
1630679482835,-0.912072,0.05368,1.483642
1630679482845,-1.042185,0.212585,1.714832
1630679482854,-0.694241,0.219966,1.5999079999999999
1630679482864,-0.8066639999999999,0.217282,1.942911
1630679482873,-0.814472,0.214354,1.998604
1630679482883,-0.810568,0.21581799999999998,1.96481
1630679482893,-0.806908,0.256871,1.868735
1630679482902,-0.792207,0.282186,1.800293
1630679482912,-0.76311,0.260165,1.737341
1630679482921,-0.7160179999999999,0.213195,1.645658
1630679482931,-0.6405,0.141459,1.525
1630679482941,-0.552172,0.06417199999999999,1.3839679999999999
1630679482950,-0.476227,0.029463,1.263371
1630679482960,-0.536983,0.037271,1.22183
1630679482969,-0.40321,0.0037819999999999998,1.072929
1630679482979,-0.376004,0.011101999999999999,0.975451
1630679482989,-0.259616,0.054534,0.876143
1630679482998,-0.123281,0.07740899999999999,0.7198
1630679483008,-0.089243,0.061915,0.635559
1630679483017,0.058682,-0.06478199999999999,0.491904
1630679483027,0.0915,-0.18849,0.371734
1630679483037,0.078751,-0.223748,0.27114499999999997
1630679483046,0.079178,-0.23680199999999998,0.18361
1630679483056,0.113643,-0.257176,0.151341
1630679483065,0.099674,-0.227652,0.12444
1630679483075,0.06831999999999999,-0.171288,0.104554
1630679483085,0.057157,-0.15390299999999998,0.118218
1630679483094,0.052155,-0.161894,0.124989
1630679483104,0.050873999999999996,-0.187758,0.11779099999999999
1630679483113,0.052094,-0.216611,0.130357
1630679483123,0.046299,-0.267302,0.137372
1630679483133,0.059414,-0.311222,0.168726
1630679483142,0.038064,-0.29792399999999997,0.255224
1630679483152,0.011529,-0.273402,0.36112
1630679483161,-0.047763,-0.127368,0.666791
1630679483171,-0.12505,0.062037,1.046699
1630679483181,-0.160003,0.07911699999999999,1.173457
1630679483190,-0.189588,0.056608,1.160464
1630679483200,-0.19428499999999999,0.039833,1.110749
1630679483209,-0.149877,-0.029036,1.087996
1630679483219,-0.184464,-0.063379,1.11691
1630679483229,-0.381555,0.035441,1.2744119999999999
1630679483238,-0.530151,0.139873,1.443199
1630679483248,-0.615063,0.218136,1.5518399999999999
1630679483257,-0.661606,0.258091,1.740818
1630679483267,-0.634034,0.179096,1.884717
1630679483277,-0.551562,0.179645,1.9388239999999999
1630679483286,-0.523685,0.18788,1.931687
1630679483296,-0.525942,0.27205999999999997,1.9057009999999999
1630679483305,-0.555588,0.384727,1.911435
1630679483315,-0.532225,0.451583,1.9218659999999999
1630679483325,-0.491843,0.478728,1.870016
1630679483334,-0.447191,0.509594,1.777601
1630679483344,-0.341234,0.461221,1.629676
1630679483353,-0.255041,0.395463,1.40666
1630679483363,-0.242414,0.398391,1.269471
1630679483373,-0.14091,0.298473,1.119167
1630679483382,-0.061488,0.23424,1.001254
1630679483392,-0.012383,0.16683499999999998,0.884378
1630679483401,-0.00042699999999999997,0.110471,0.7625609999999999
1630679483411,-0.009821,0.067832,0.6670349999999999
1630679483421,-0.02318,0.037576,0.584502
1630679483430,-0.006893,0.013786,0.537898
1630679483440,0.014152,-0.048007,0.469273
1630679483449,0.020801,-0.090097,0.38356799999999996
1630679483459,0.035929,-0.099552,0.326533
1630679483469,0.027267,-0.117242,0.27144999999999997
1630679483478,-0.0064659999999999995,-0.099003,0.24662299999999998
1630679483488,-0.032695999999999996,-0.088633,0.216611
1630679483497,-0.043005,-0.090463,0.209596
1630679483507,-0.078995,-0.07063799999999999,0.194956
1630679483517,-0.099613,-0.07002799999999999,0.196054
1630679483526,-0.061793,-0.157868,0.162809
1630679483536,-0.072102,-0.208681,0.125721
1630679483545,-0.111691,-0.243512,0.141032
1630679483555,-0.15823399999999999,-0.205143,0.230275
1630679483565,-0.254736,-0.044164,0.460001
1630679483574,-0.35319,0.24973399999999998,0.8611369999999999
1630679483584,-0.310307,0.326228,1.123559
1630679483593,-0.307013,0.231434,1.140334
1630679483603,-0.336964,0.045994,1.133685
1630679483613,-0.356301,-0.192516,1.138931
1630679483622,-0.362523,-0.279136,1.216706
1630679483632,-0.335744,-0.321104,1.310768
1630679483641,-0.361913,-0.246684,1.4323409999999999
1630679483651,-0.413397,-0.1098,1.6626159999999999
1630679483661,-0.429013,0.015127999999999999,1.9458389999999999
1630679483670,-0.446276,0.080215,1.998604
1630679483680,-0.460001,0.067771,1.998604
1630679483689,-0.472445,0.013176,1.998604
1630679483699,-0.508801,0.038064,1.997689
1630679483709,-0.548207,0.12956399999999998,1.954196
1630679483718,-0.550464,0.176229,1.945473
1630679483728,-0.527284,0.162504,1.880813
1630679483737,-0.48867099999999997,0.12132899999999999,1.764913
1630679483747,-0.436577,0.07649399999999999,1.6069229999999999
1630679483757,-0.380457,0.066185,1.441064
1630679483766,-0.314333,0.082838,1.2905769999999999
1630679483776,-0.244915,0.095526,1.155767
1630679483785,-0.191235,0.073383,1.002413
1630679483795,-0.136213,0.047092,0.858026
1630679483805,-0.070577,0.013054,0.737246
1630679483814,-0.006039,-0.027327999999999998,0.628239
1630679483824,0.043554,-0.053191999999999996,0.538264
1630679483833,0.076616,-0.08033699999999999,0.45139999999999997
1630679483843,0.103212,-0.1281,0.36356
1630679483853,0.131028,-0.16744499999999998,0.283345
1630679483862,0.139934,-0.182451,0.20862
1630679483872,0.13480999999999999,-0.175009,0.146705
1630679483881,0.12834399999999999,-0.156953,0.104615
1630679483891,0.107665,-0.133346,0.06801499999999999
1630679483901,0.074664,-0.10376099999999999,0.045689
1630679483910,0.060146,-0.091622,0.02928
1630679483920,0.054717,-0.106567,0.011041
1630679483929,0.055144,-0.125782,-0.00042699999999999997
1630679483939,0.048617,-0.126453,0.008173999999999999
1630679483949,0.047702,-0.119499,0.019886
1630679483958,0.03111,-0.111691,0.046482
1630679483968,-0.00122,-0.069235,0.145912
1630679483977,-0.027206,-0.015372,0.304817
1630679483987,-0.109983,0.097112,0.573949
1630679483997,-0.234118,0.369904,1.044564
1630679484006,-0.258701,0.502152,1.3589579999999999
1630679484016,-0.214354,0.38887499999999997,1.356518
1630679484025,-0.169641,0.244,1.309243
1630679484035,-0.113948,0.195322,1.255014
1630679484045,-0.049044,0.205204,1.22488
1630679484054,-0.062891,0.32195799999999997,1.345599
1630679484064,-0.121756,0.350201,1.588806
1630679484073,-0.220027,0.362767,1.818776
1630679484083,-0.313967,0.35075,1.998604
1630679484093,-0.358802,0.310368,1.998604
1630679484102,-0.375394,0.303109,1.998604
1630679484112,-0.366183,0.371734,1.998604
1630679484121,-0.359046,0.470188,1.979633
1630679484131,-0.358436,0.546438,1.905823
1630679484141,-0.348798,0.5626639999999999,1.854461
1630679484150,-0.321836,0.540216,1.797304
1630679484160,-0.28438199999999997,0.476471,1.6984839999999999
1630679484169,-0.246562,0.388326,1.559099
1630679484179,-0.207766,0.310856,1.419104
1630679484189,-0.17793699999999998,0.257786,1.280878
1630679484198,-0.156953,0.219905,1.1451529999999999
1630679484208,-0.145668,0.187392,1.029741
1630679484217,-0.140727,0.156526,0.9095099999999999
1630679484227,-0.13115,0.101626,0.777323
1630679484237,-0.12132899999999999,0.049776,0.653493
1630679484246,-0.10760399999999999,0.011285,0.551623
1630679484256,-0.09089,-0.03172,0.448167
1630679484265,-0.06801499999999999,-0.07259,0.345016
1630679484275,-0.052216,-0.096685,0.254858
1630679484285,-0.046665,-0.104798,0.190991
1630679484294,-0.052399,-0.083936,0.16500499999999999
1630679484304,-0.056729999999999996,-0.021228,0.183366
1630679484313,-0.039345,0.028731,0.198555
1630679484323,-0.020557,0.051545,0.188185
1630679484333,-0.006039,0.070089,0.163297
1630679484342,0.010187,0.067893,0.11651
1630679484352,0.019642,0.053131,0.063135
1630679484361,0.022631,0.029402,0.026595999999999998
1630679484371,0.007991,0.003538,0.025559
1630679484381,-0.025925,0.016836,0.092964
1630679484390,-0.081069,0.070394,0.25882299999999997
1630679484400,-0.16897,0.204655,0.5395449999999999
1630679484409,-0.245037,0.357948,0.8464969999999999
1630679484419,-0.269498,0.413885,1.017724
1630679484429,-0.279746,0.354288,1.068354
1630679484438,-0.288347,0.229055,1.100135
1630679484448,-0.29304399999999997,0.119377,1.1703459999999999
1630679484457,-0.319457,0.106628,1.278011
1630679484467,-0.33458499999999997,0.165432,1.377929
1630679484477,-0.369904,0.302804,1.479128
1630679484486,-0.48251,0.538874,1.68238
1630679484496,-0.553453,0.7521909999999999,1.998604
1630679484505,-0.6426959999999999,0.898347,1.998604
1630679484515,-0.722423,0.779824,1.998604
1630679484525,-0.7354769999999999,0.660508,1.998604
1630679484534,-0.719495,0.682956,1.9598689999999999
1630679484544,-0.7090029999999999,0.6895439999999999,1.8615979999999999
1630679484553,-0.668682,0.638792,1.740391
1630679484563,-0.607438,0.578707,1.619367
1630679484573,-0.550586,0.522404,1.474065
1630679484582,-0.48678,0.458659,1.310768
1630679484592,-0.420839,0.395219,1.140456
1630679484601,-0.35373899999999997,0.361913,0.987346
1630679484611,-0.302072,0.368379,0.861259
1630679484621,-0.24790399999999999,0.35312899999999997,0.76006
1630679484630,-0.195871,0.311466,0.6840539999999999
1630679484640,-0.148535,0.266082,0.612196
1630679484649,-0.10492,0.19886,0.539972
1630679484659,-0.07015,0.131455,0.47458
1630679484669,-0.039833,0.064294,0.40333199999999997
1630679484678,-0.017019,-0.002928,0.318359
1630679484688,-0.003538,-0.060634,0.22143
1630679484697,0.001037,-0.092293,0.137982
1630679484707,-0.00488,-0.09558699999999999,0.075274
1630679484717,-0.019215,-0.076128,0.035197
1630679484726,-0.039223,-0.048617,0.005673
1630679484736,-0.051057,-0.039284,-0.017751
1630679484745,-0.048556,-0.04758,-0.037027
1630679484755,-0.036478,-0.06709999999999999,-0.048007
1630679484765,-0.031476,-0.055205,-0.032695999999999996
1630679484774,-0.027999,-0.008784,0.024399999999999998
1630679484784,-0.024949,0.061854,0.111325
1630679484793,-0.021716,0.124135,0.221308
1630679484803,-0.080276,0.271694,0.444324
1630679484813,-0.195444,0.569252,0.827709
1630679484822,-0.281393,0.804346,1.1709559999999999
1630679484832,-0.29097,0.774761,1.256539
1630679484841,-0.24644,0.518927,1.159732
1630679484851,-0.234911,0.32817999999999997,1.1222779999999999
1630679484861,-0.204594,0.334158,1.146129
1630679484870,-0.129991,0.40211199999999997,1.17486
1630679484880,-0.168848,0.50691,1.236348
1630679484889,-0.318481,0.686921,1.58661
1630679484899,-0.449753,0.850584,1.9449239999999999
1630679484909,-0.530578,0.8717509999999999,1.998604
1630679484918,-0.50325,0.830637,1.998604
1630679484928,-0.44042,0.9027999999999999,1.992321
1630679484937,-0.389058,1.081408,1.921744
1630679484947,-0.360876,1.143811,1.860927
1630679484957,-0.32287299999999997,1.048773,1.790777
1630679484966,-0.284199,0.892674,1.692872
1630679484976,-0.240767,0.7512759999999999,1.570506
1630679484985,-0.189832,0.6384259999999999,1.433012
1630679484995,-0.144692,0.5404599999999999,1.2820369999999999
1630679485005,-0.113033,0.461709,1.136735
1630679485014,-0.098759,0.397354,0.987285
1630679485024,-0.10345599999999999,0.352763,0.85278
1630679485033,-0.109678,0.314211,0.73383
1630679485043,-0.110593,0.266997,0.603412
1630679485053,-0.106811,0.205143,0.47360399999999997
1630679485062,-0.088023,0.140117,0.349286
1630679485072,-0.071614,0.093574,0.242414
1630679485081,-0.04453,0.029707,0.161345
1630679485091,-0.030805,0.022021,0.11895
1630679485101,-0.021716,0.047458,0.114009
1630679485110,-0.015433,0.09235399999999999,0.140788
1630679485120,-0.01159,0.134261,0.17086099999999999
1630679485129,0.001647,0.158783,0.181353
1630679485139,0.016836,0.142435,0.157563
1630679485149,0.02257,0.08906,0.11193499999999999
1630679485158,0.026779,0.028304,0.068198
1630679485168,0.022143,-0.028426,0.030805
1630679485177,0.002562,-0.049349,0.05063
1630679485187,-0.038003,0.001037,0.159332
1630679485197,-0.113826,0.139324,0.36173
1630679485206,-0.215879,0.424804,0.677588
1630679485216,-0.259189,0.617686,0.95038
1630679485225,-0.244671,0.531249,1.019005
1630679485235,-0.227896,0.355325,0.987468
1630679485245,-0.24790399999999999,0.216916,0.950014
1630679485254,-0.271572,0.221308,1.054263
1630679485264,-0.29517899999999997,0.275354,1.145397
1630679485273,-0.327631,0.347456,1.20719
1630679485283,-0.402356,0.56913,1.396229
1630679485293,-0.500688,0.7804949999999999,1.715991
1630679485302,-0.563945,0.939888,1.998604
1630679485312,-0.6594099999999999,0.933971,1.998604
1630679485321,-0.692777,0.718336,1.998604
1630679485331,-0.680211,0.63013,1.998604
1630679485341,-0.668438,0.68137,1.944375
1630679485350,-0.639463,0.679845,1.88795
1630679485360,-0.591639,0.633058,1.7952299999999999
1630679485369,-0.5413749999999999,0.5842579999999999,1.646634
1630679485379,-0.489403,0.529968,1.47376
1630679485389,-0.429623,0.48129,1.296555
1630679485398,-0.359839,0.453169,1.127951
1630679485408,-0.299083,0.445239,0.983015
1630679485417,-0.241255,0.435967,0.871507
1630679485427,-0.190808,0.400465,0.778177
1630679485437,-0.149023,0.352336,0.688751
1630679485446,-0.106872,0.287005,0.584624
1630679485456,-0.06770999999999999,0.20965699999999998,0.469456
1630679485465,-0.046176999999999996,0.137372,0.368074
1630679485475,-0.039467,0.075396,0.265838
1630679485485,-0.030560999999999998,0.024888,0.165676
1630679485494,-0.016287,0.019032,0.108092
1630679485504,-0.0070149999999999995,0.024704999999999998,0.055693
1630679485513,-0.005246,0.025254,0.011346
1630679485523,-0.0050019999999999995,0.040931,0.0015249999999999999
1630679485533,0.003538,0.019459,0.01647
1630679485542,0.013786,-0.005978,0.018239
1630679485552,0.018971,-0.025925,-0.000793
1630679485561,0.018422,-0.028914,0.009333
1630679485571,0.017141,-0.010492,0.052948
1630679485581,0.012261,0.026535,0.126209
1630679485590,-0.032574,0.215269,0.317627
1630679485600,-0.090829,0.493185,0.650504
1630679485609,-0.125172,0.707905,0.9663619999999999
1630679485619,-0.11053199999999999,0.701073,1.1353929999999999
1630679485629,-0.115351,0.56303,1.121424
1630679485638,-0.121695,0.328363,0.9977159999999999
1630679485648,-0.11022699999999999,0.24949,1.012234
1630679485657,-0.074603,0.30195,1.153144
1630679485667,-0.042578,0.355508,1.229638
1630679485677,-0.09272,0.515145,1.249585
1630679485686,-0.184037,0.764025,1.5189
1630679485696,-0.255712,0.8559519999999999,1.827072
1630679485705,-0.308355,0.900421,1.9008209999999999
1630679485715,-0.288347,0.853451,1.838052
1630679485725,-0.254919,0.8614419999999999,1.766438
1630679485734,-0.225456,0.99613,1.771745
1630679485744,-0.156892,1.066768,1.739964
1630679485753,-0.124745,1.035048,1.7416719999999999
1630679485763,-0.093269,0.919087,1.673413
1630679485773,-0.041479999999999996,0.7750049999999999,1.562454
1630679485782,0.014152,0.698694,1.442955
1630679485792,0.065514,0.624823,1.280695
1630679485801,0.099674,0.552416,1.0918999999999999
1630679485811,0.101992,0.501664,0.907863
1630679485821,0.082289,0.45872,0.7424919999999999
1630679485830,0.124074,0.365817,0.567605
1630679485840,0.058987,0.39497499999999997,0.531493
1630679485849,0.048068,0.326533,0.415105
1630679485859,0.042212,0.235399,0.318481
1630679485869,0.066978,0.169519,0.244732
1630679485878,0.08558299999999999,0.069723,0.173179
1630679485888,0.094489,-0.011895,0.063989
1630679485897,0.080886,-0.085156,-0.007442
1630679485907,0.062098,-0.03721,-0.004331
1630679485917,0.020618,0.024644,0.040626
1630679485926,-0.0030499999999999998,0.052216,0.087108
1630679485936,-0.017019,0.029463,0.108458
1630679485945,-0.05185,-0.01281,0.108214
1630679485955,-0.100589,-0.020739999999999998,0.150548
1630679485965,-0.179096,0.015127999999999999,0.256322
1630679485974,-0.234911,0.16128399999999998,0.488427
1630679485984,-0.22661499999999998,0.394609,0.841068
1630679485993,-0.23003099999999999,0.598349,1.143201
1630679486003,-0.234545,0.529053,1.23159
1630679486013,-0.243207,0.304817,1.10837
1630679486022,-0.244305,0.070516,1.0246169999999999
1630679486032,-0.25315,0.01769,1.126121
1630679486041,-0.265472,0.074908,1.269715
1630679486051,-0.301157,0.195078,1.3742079999999999
1630679486061,-0.371429,0.408395,1.500112
1630679486070,-0.47116399999999997,0.6578849999999999,1.772355
1630679486080,-0.538203,0.781959,1.998604
1630679486089,-0.628239,0.742919,1.998604
1630679486099,-0.6874089999999999,0.635315,1.998604
1630679486109,-0.693082,0.547536,1.926807
1630679486118,-0.674782,0.542656,1.88368
1630679486128,-0.632997,0.553148,1.8390279999999999
1630679486137,-0.588284,0.606462,1.817312
1630679486147,-0.549854,0.625921,1.726788
1630679486157,-0.518134,0.5848679999999999,1.545801
1630679486166,-0.483303,0.536983,1.336571
1630679486176,-0.440054,0.48958599999999997,1.14558
1630679486185,-0.399001,0.444934,0.979599
1630679486195,-0.362279,0.39100999999999997,0.8331379999999999
1630679486205,-0.259799,0.247477,0.6935089999999999
1630679486214,-0.238388,0.2745,0.653432
1630679486224,-0.19733499999999998,0.188612,0.559736
1630679486233,-0.165554,0.10467599999999999,0.45945199999999997
1630679486243,-0.123098,0.034159999999999996,0.38051799999999997
1630679486253,-0.07618899999999999,-0.000976,0.314394
1630679486262,-0.044042,-0.061183,0.232959
1630679486272,-0.03538,-0.063989,0.174399
1630679486281,-0.010309,-0.07259,0.11730299999999999
1630679486291,0.020618,-0.066734,0.077348
1630679486301,0.027694,-0.032269,0.07911699999999999
1630679486310,0.0183,0.005978,0.109251
1630679486320,0.033672,-0.012383,0.122732
1630679486329,0.050263999999999996,-0.060878,0.12017
1630679486339,0.055083,-0.100406,0.12071899999999999
1630679486349,0.053924,-0.14066599999999999,0.140849
1630679486358,0.050873999999999996,-0.112728,0.224846
1630679486368,0.034892,-0.054960999999999996,0.354288
1630679486377,-0.026168999999999998,0.161101,0.643184
1630679486387,-0.123281,0.521672,1.054446
1630679486397,-0.163785,0.7309019999999999,1.291431
1630679486406,-0.167689,0.638914,1.206519
1630679486416,-0.119743,0.32574,1.007842
1630679486425,-0.061366,0.146766,0.997655
1630679486435,-0.071065,0.210267,1.1433229999999999
1630679486445,-0.058255,0.183976,1.2759369999999999
1630679486454,-0.086254,0.17976699999999998,1.345904
1630679486464,-0.21594,0.351848,1.512678
1630679486473,-0.318237,0.5705939999999999,1.800659
1630679486483,-0.376431,0.683993,1.9311989999999999
1630679486493,-0.354715,0.6156119999999999,1.899235
1630679486502,-0.303719,0.559187,1.852387
1630679486512,-0.294813,0.668621,1.884534
1630679486521,-0.287432,0.791292,1.960601
1630679486531,-0.275537,0.805871,1.994761
1630679486541,-0.257664,0.7506659999999999,1.965847
1630679486550,-0.252357,0.698267,1.858914
1630679486560,-0.241682,0.663741,1.708671
1630679486569,-0.21106,0.587796,1.5080419999999999
1630679486579,-0.147681,0.511912,1.332911
1630679486589,-0.107482,0.47238399999999997,1.170285
1630679486598,-0.082228,0.463356,1.0187
1630679486608,-0.07747,0.44682499999999997,0.86498
1630679486617,-0.072407,0.400526,0.719922
1630679486627,-0.06539199999999999,0.341234,0.582489
1630679486637,-0.04819,0.27572,0.477691
1630679486646,-0.0059169999999999995,0.195383,0.384178
1630679486656,0.020923,0.112179,0.303658
1630679486665,0.036905,0.052948,0.227652
1630679486675,0.048068,-0.009394,0.183427
1630679486685,0.038491,-0.022326,0.158112
1630679486694,0.057706,-0.018605,0.126819
1630679486704,0.043127,0.029707,0.124196
1630679486713,0.036356,0.075518,0.14188599999999998
1630679486723,0.035807,0.094733,0.156953
1630679486733,0.044896,0.087108,0.138226
1630679486742,0.038857,0.06770999999999999,0.093391
1630679486752,0.04331,0.040626,0.036539
1630679486761,0.014029999999999999,0.024522,0.003965
1630679486771,-0.015616,0.060085,0.042029
1630679486781,-0.106323,0.218685,0.206729
1630679486790,-0.193736,0.455304,0.49672299999999997
1630679486800,-0.250954,0.57767,0.7555459999999999
1630679486809,-0.293532,0.569191,0.882975
1630679486819,-0.284016,0.486475,0.900482
1630679486829,-0.249063,0.361913,0.885598
1630679486838,-0.235033,0.3233,0.943426
1630679486848,-0.238388,0.342149,1.075247
1630679486857,-0.243329,0.353678,1.199504
1630679486867,-0.267668,0.46177,1.3316299999999999
1630679486877,-0.376065,0.685762,1.572214
1630679486886,-0.497821,0.95648,1.932968
1630679486896,-0.544486,1.074576,1.998604
1630679486905,-0.556564,0.865895,1.998604
1630679486915,-0.575047,0.621834,1.998604
1630679486925,-0.574742,0.508496,1.9862819999999999
1630679486934,-0.545157,0.451339,1.8974659999999999
1630679486944,-0.507276,0.43066,1.798402
1630679486953,-0.464515,0.41907,1.673962
1630679486963,-0.416386,0.384239,1.517253
1630679486973,-0.376187,0.34416199999999997,1.351455
1630679486982,-0.348005,0.319701,1.199992
1630679486992,-0.321104,0.304939,1.084336
1630679487001,-0.287249,0.289262,0.983503
1630679487011,-0.251198,0.263337,0.8735809999999999
1630679487021,-0.208803,0.221918,0.759389
1630679487030,-0.165981,0.159027,0.6433059999999999
1630679487040,-0.12383,0.09089,0.539911
1630679487049,-0.08356999999999999,0.040199,0.451827
1630679487059,-0.04636,-0.0023179999999999997,0.370758
1630679487069,-0.017019,-0.046176999999999996,0.28243
1630679487078,0.002379,-0.075335,0.204655
1630679487088,0.013969,-0.084607,0.14457
1630679487097,0.01647,-0.074664,0.117486
1630679487107,0.009637999999999999,-0.044225,0.116571
1630679487117,0.0051849999999999995,-0.019886,0.10760399999999999
1630679487126,0.00793,-0.018422,0.085705
1630679487136,0.022814,-0.029951,0.07063799999999999
1630679487145,0.046482,-0.06740499999999999,0.065697
1630679487155,0.06527,-0.103822,0.079361
1630679487165,0.081923,-0.101199,0.125294
1630679487174,0.082533,-0.057706,0.204533
1630679487184,0.062280999999999996,0.033916,0.389912
1630679487193,0.002806,0.24046199999999998,0.7780549999999999
1630679487203,-0.040931,0.45139999999999997,1.278499
1630679487213,-0.034526,0.437492,1.431853
1630679487222,-0.035075,0.255895,1.330532
1630679487232,-0.037698,0.05917,1.230553
1630679487241,-0.018543999999999998,-0.092964,1.160159
1630679487251,0.024888,-0.087779,1.245803
1630679487261,0.037149,0.011224,1.2853919999999999
1630679487270,-0.044407999999999996,0.18056,1.3288849999999999
1630679487280,-0.130052,0.375882,1.5548899999999999
1630679487289,-0.16775,0.468114,1.833233
1630679487299,-0.205814,0.510997,1.961882
1630679487309,-0.204045,0.507215,1.977559
1630679487318,-0.180682,0.531371,1.961638
1630679487328,-0.163907,0.606889,1.986343
1630679487337,-0.148779,0.651114,1.997323
1630679487347,-0.149755,0.640317,1.964322
1630679487357,-0.14762,0.591456,1.88002
1630679487366,-0.128161,0.550647,1.757166
1630679487376,-0.080398,0.504165,1.6127179999999999
1630679487385,-0.026352,0.44212799999999997,1.419653
1630679487395,0.012871,0.379054,1.196332
1630679487405,0.028364999999999998,0.309392,0.978196
1630679487414,0.013969,0.270657,0.813801
1630679487424,-0.0057339999999999995,0.24265799999999998,0.697657
1630679487433,-0.016226,0.193187,0.604205
1630679487443,-0.022509,0.127612,0.519537
1630679487453,-0.013481,0.065514,0.445544
1630679487462,-0.0006709999999999999,0.00976,0.376675
1630679487472,0.011651,-0.049349,0.304268
1630679487481,0.017568,-0.09759999999999999,0.238083
1630679487491,0.015433,-0.11638799999999999,0.195993
1630679487501,0.007137,-0.107116,0.182085
1630679487510,-0.003355,-0.063684,0.185684
1630679487520,-0.0064659999999999995,-0.043798,0.174277
1630679487529,-0.004392,-0.061305,0.141703
1630679487539,-0.016958,-0.081557,0.112728
1630679487549,-0.035258,-0.114253,0.098454
1630679487558,-0.055265999999999996,-0.12566,0.1403
1630679487568,-0.073017,-0.083692,0.26413
1630679487577,-0.134749,-0.018727,0.448838
1630679487587,-0.227042,0.204777,0.809897
1630679487597,-0.22875,0.348798,1.132221
1630679487606,-0.188795,0.31707799999999997,1.188158
1630679487616,-0.15372,0.174765,1.144787
1630679487625,-0.154147,-0.065026,1.092937
1630679487635,-0.180804,-0.280478,1.102087
1630679487645,-0.19763999999999998,-0.260104,1.253489
1630679487654,-0.198006,-0.139324,1.352919
1630679487664,-0.246257,0.09467199999999999,1.510726
1630679487673,-0.337574,0.349042,1.794376
1630679487683,-0.369904,0.477813,1.998604
1630679487693,-0.434808,0.472567,1.998604
1630679487702,-0.487817,0.383812,1.998604
1630679487712,-0.522282,0.295667,1.998604
1630679487721,-0.513437,0.312503,1.998604
1630679487731,-0.490623,0.3355,1.998604
1630679487741,-0.46524699999999997,0.318359,1.998604
1630679487750,-0.430538,0.263215,1.893684
1630679487760,-0.394609,0.19154,1.691225
1630679487769,-0.35746,0.14280099999999998,1.463695
1630679487779,-0.30988,0.116205,1.242387
1630679487789,-0.267607,0.12023099999999999,1.054629
1630679487798,-0.223016,0.147193,0.912377
1630679487808,-0.179096,0.160125,0.794647
1630679487817,-0.133224,0.15512299999999998,0.71004
1630679487827,-0.08234999999999999,0.102968,0.625433
1630679487837,-0.045445,0.045018,0.546926
1630679487846,-0.021899,0.020191,0.485133
1630679487856,0.000488,0.001464,0.409493
1630679487865,0.018605,-0.031293,0.309514
1630679487875,0.023424,-0.052948,0.21838
1630679487885,0.015127999999999999,-0.060024,0.143594
1630679487894,0.00671,-0.052216,0.096624
1630679487904,-0.007625,-0.026900999999999998,0.078202
1630679487913,-0.014457,-0.008296,0.068076
1630679487923,-0.008052,-0.000488,0.057157
1630679487933,0.012383,-0.009394,0.039101
1630679487942,0.027938,-0.009271999999999999,0.018788
1630679487952,0.033489,-0.009394,0.014761999999999999
1630679487961,0.028243,-0.014091,0.015493999999999999
1630679487971,0.015921,0.0077469999999999995,0.061426999999999995
1630679487981,-0.006527,0.09455,0.207888
1630679487990,-0.041419,0.266143,0.504958
1630679488000,-0.071065,0.433344,0.914329
1630679488009,-0.074786,0.526735,1.211155
1630679488019,-0.033489,0.442494,1.2373239999999999
1630679488029,0.016104,0.247538,1.133014
1630679488038,0.0075639999999999995,0.12315899999999999,1.017175
1630679488048,-0.005612,0.162199,1.090619
1630679488057,0.032513,0.22356499999999999,1.195905
1630679488067,0.035197,0.276025,1.287283
1630679488077,-0.042638999999999996,0.367403,1.592283
1630679488086,-0.119072,0.453596,1.912533
1630679488096,-0.192455,0.46646699999999996,1.998604
1630679488105,-0.20166599999999998,0.411628,1.998604
1630679488115,-0.17263,0.45078999999999997,1.998604
1630679488125,-0.148291,0.569618,1.998604
1630679488134,-0.132858,0.659959,1.998604
1630679488144,-0.138592,0.671671,1.998604
1630679488153,-0.140178,0.6320209999999999,1.98921
1630679488163,-0.120292,0.571631,1.8722729999999999
1630679488173,-0.089609,0.517158,1.738927
1630679488182,-0.058926,0.463844,1.584475
1630679488192,-0.02928,0.39131499999999997,1.391776
1630679488201,-0.017385,0.32208,1.202432
1630679488211,-0.017202,0.273524,1.03029
1630679488221,-0.022875,0.241194,0.881633
1630679488230,-0.019947,0.197701,0.7431019999999999
1630679488240,-0.012749,0.152927,0.612196
1630679488249,0.00183,0.110959,0.48836599999999997
1630679488259,0.016774999999999998,0.072712,0.380274
1630679488269,0.036722,0.028059999999999998,0.27419499999999997
1630679488278,0.053131,-0.023424,0.182512
1630679488288,0.058926,-0.052337999999999996,0.117059
1630679488297,0.045262,-0.027206,0.10492
1630679488307,0.036539,0.017019,0.11895
1630679488317,0.035502,0.061488,0.13847
1630679488326,0.041907,0.097539,0.157197
1630679488336,0.055083,0.095404,0.140544
1630679488345,0.066429,0.049227,0.08912099999999999
1630679488355,0.065941,-0.010735999999999999,0.029585
1630679488365,0.056669,-0.049104999999999996,-0.001464
1630679488374,0.039833,-0.052826,0.023972999999999998
1630679488384,0.0034159999999999998,0.001403,0.108031
1630679488393,-0.055754,0.114131,0.291763
1630679488403,-0.144814,0.33611,0.61976
1630679488413,-0.220088,0.554002,0.9502579999999999
1630679488422,-0.23485,0.609085,1.130696
1630679488432,-0.19025899999999998,0.48562099999999997,1.119472
1630679488441,-0.16713999999999998,0.313662,1.071587
1630679488451,-0.186416,0.277611,1.0891549999999999
1630679488461,-0.19215,0.324581,1.15839
1630679488470,-0.215696,0.395768,1.234518
1630679488480,-0.298412,0.5367999999999999,1.362435
1630679488489,-0.446581,0.822951,1.67933
1630679488499,-0.51423,1.044808,1.998604
1630679488509,-0.541009,1.03639,1.998604
1630679488518,-0.562603,0.8541219999999999,1.998604
1630679488528,-0.591456,0.716384,1.998604
1630679488537,-0.570655,0.702354,1.998604
1630679488547,-0.545462,0.7613409999999999,1.901614
1630679488557,-0.520025,0.792695,1.7976699999999999
1630679488566,-0.48007,0.74664,1.652795
1630679488576,-0.435906,0.651297,1.449299
1630679488585,-0.391681,0.558333,1.23769
1630679488595,-0.349408,0.48714599999999997,1.050969
1630679488605,-0.308233,0.452498,0.9104249999999999
1630679488614,-0.261324,0.418155,0.797331
1630679488624,-0.210694,0.368379,0.696803
1630679488633,-0.162748,0.299083,0.606828
1630679488643,-0.12071899999999999,0.232898,0.533628
1630679488653,-0.08649799999999999,0.166286,0.458903
1630679488662,-0.057401,0.106445,0.38247
1630679488672,-0.031781,0.052826,0.303414
1630679488681,-0.01342,0.016774999999999998,0.21831899999999999
1630679488691,-0.000183,-0.000488,0.132614
1630679488701,0.0037819999999999998,0.005978,0.06161
1630679488710,-0.002928,0.036356,0.019703
1630679488720,-0.016897,0.081313,0.018178
1630679488729,-0.031354,0.09235399999999999,0.01098
1630679488739,-0.022265,0.069784,-0.005795
1630679488749,0.000915,0.037515,-0.023729
1630679488758,0.020191,0.011163,-0.03599
1630679488768,0.031171,0.004758,-0.022814
1630679488777,0.02867,0.013542,0.019093
1630679488787,0.012871,0.06417199999999999,0.11577799999999999
1630679488797,-0.050203,0.24973399999999998,0.329583
1630679488806,-0.140483,0.534848,0.671122
1630679488816,-0.226493,0.786473,1.026264
1630679488825,-0.21838,0.777384,1.153083
1630679488835,-0.132187,0.521123,1.06445
1630679488845,-0.081862,0.310917,0.996984
1630679488854,-0.078324,0.36539,1.0818349999999999
1630679488864,-0.039772,0.48348599999999997,1.199138
1630679488873,-0.039223,0.547048,1.215608
1630679488883,-0.154025,0.699548,1.421239
1630679488893,-0.278526,0.893345,1.798463
1630679488902,-0.35624,0.943426,1.977071
1630679488912,-0.356423,0.897371,1.982073
1630679488921,-0.320982,0.910791,1.9610889999999999
1630679488931,-0.294447,1.026813,1.958283
1630679488941,-0.297436,1.146251,1.955843
1630679488950,-0.314333,1.148264,1.905518
1630679488960,-0.335439,1.104405,1.842139
1630679488969,-0.340929,1.06689,1.776625
1630679488979,-0.316102,1.006012,1.66835
1630679488989,-0.267607,0.9231739999999999,1.516765
1630679488998,-0.212341,0.80947,1.332728
1630679489008,-0.170068,0.6941189999999999,1.146068
1630679489017,-0.145119,0.600606,0.976671
1630679489027,-0.132919,0.521855,0.8224629999999999
1630679489037,-0.115107,0.434137,0.671732
1630679489046,-0.09881999999999999,0.343979,0.533628
1630679489056,-0.082899,0.26169,0.41724
1630679489065,-0.06344,0.185989,0.32086
1630679489075,-0.038003,0.114497,0.225151
1630679489085,-0.012322,0.06801499999999999,0.14127599999999998
1630679489094,0.0053679999999999995,0.049409999999999996,0.096868
1630679489104,0.007991,0.03904,0.06709999999999999
1630679489113,0.002745,0.054717,0.050813
1630679489123,0.0042699999999999995,0.09394,0.052521
1630679489133,0.006588,0.159637,0.06893
1630679489142,0.024644,0.198372,0.074725
1630679489152,0.050568999999999996,0.185196,0.046176999999999996
1630679489161,0.080276,0.137982,-0.0013419999999999999
1630679489171,0.096319,0.07740899999999999,-0.052277
1630679489181,0.096136,0.021838,-0.071004
1630679489190,0.079056,-0.012565999999999999,-0.041602
1630679489200,0.035623999999999996,0.047153,0.08033699999999999
1630679489209,-0.033794,0.183915,0.26870499999999997
1630679489219,-0.11547299999999999,0.37698,0.528992
1630679489229,-0.228079,0.6039,0.814655
1630679489238,-0.29426399999999997,0.715774,1.012539
1630679489248,-0.24912399999999998,0.602497,1.0398669999999999
1630679489257,-0.216855,0.392413,0.967033
1630679489267,-0.25376,0.346846,1.001925
1630679489277,-0.298473,0.43541799999999997,1.092266
1630679489286,-0.34648,0.553026,1.181509
1630679489296,-0.424377,0.745298,1.345355
1630679489305,-0.501542,1.0261419999999999,1.662372
1630679489315,-0.55754,1.2391539999999999,1.972496
1630679489325,-0.619028,1.27856,1.998604
1630679489334,-0.676185,1.16388,1.998604
1630679489344,-0.710162,1.031144,1.998604
1630679489353,-0.710284,0.968009,1.897527
1630679489363,-0.700585,0.952759,1.780529
1630679489373,-0.664961,0.9119499999999999,1.7064139999999999
1630679489382,-0.611281,0.846314,1.6060079999999999
1630679489392,-0.557235,0.76372,1.46644
1630679489401,-0.49227,0.658007,1.293749
1630679489411,-0.426024,0.547658,1.102941
1630679489421,-0.361913,0.469334,0.930982
1630679489430,-0.30439,0.431758,0.798795
1630679489440,-0.257664,0.419253,0.710772
1630679489449,-0.208925,0.39314499999999997,0.636535
1630679489459,-0.156282,0.337025,0.560712
1630679489469,-0.10790899999999999,0.27327999999999997,0.485804
1630679489478,-0.070272,0.207095,0.40748
1630679489488,-0.047458,0.127124,0.30439
1630679489497,-0.026718,0.023363,0.178425
1630679489507,-0.028548,-0.056791,0.074603
1630679489517,-0.035623999999999996,-0.07740899999999999,0.017202
1630679489526,-0.044286,-0.066124,0.002745
1630679489536,-0.063379,-0.030255999999999998,0.01281
1630679489545,-0.072224,-0.0037819999999999998,0.01891
1630679489555,-0.068808,-0.017629,0.002379
1630679489565,-0.054168,-0.049593,-0.02745
1630679489574,-0.040077,-0.072407,-0.040565
1630679489584,-0.027816,-0.06447699999999999,-0.022203999999999998
1630679489593,-0.015127999999999999,-0.040015999999999996,0.029341
1630679489603,-0.009333,0.01525,0.13298
1630679489613,-0.0068319999999999995,0.099979,0.261202
1630679489622,-0.049227,0.228628,0.464698
1630679489632,-0.176168,0.519049,0.800442
1630679489641,-0.286944,0.810507,1.132282
1630679489651,-0.279197,0.7628659999999999,1.222257
1630679489661,-0.209169,0.46128199999999997,1.066524
1630679489670,-0.185196,0.30902599999999997,0.943121
1630679489680,-0.17702199999999998,0.391254,0.980575
1630679489689,-0.13047899999999998,0.5219159999999999,1.068781
1630679489699,-0.152134,0.614636,1.101233
1630679489709,-0.296155,0.792451,1.318942
1630679489718,-0.435479,0.9925309999999999,1.682319
1630679489728,-0.512583,1.090558,1.919914
1630679489737,-0.512339,1.080798,1.998604
1630679489747,-0.475922,1.074271,1.998604
1630679489757,-0.451339,1.14314,1.998604
1630679489766,-0.447984,1.215242,1.998604
1630679489776,-0.446886,1.206458,1.946022
1630679489785,-0.435662,1.140151,1.868186
1630679489795,-0.399794,1.077626,1.787422
1630679489805,-0.340685,1.004182,1.673108
1630679489814,-0.263398,0.882487,1.489254
1630679489824,-0.195993,0.7400519999999999,1.260199
1630679489833,-0.1464,0.604693,1.027484
1630679489843,-0.122183,0.517524,0.844423
1630679489853,-0.113216,0.467504,0.70455
1630679489862,-0.099979,0.420717,0.590236
1630679489872,-0.091561,0.343918,0.470066
1630679489881,-0.082594,0.248087,0.35014
1630679489891,-0.066612,0.158295,0.250039
1630679489901,-0.029768,0.083021,0.175497
1630679489910,0.010735999999999999,0.024217,0.11651
1630679489920,0.031659,-0.020679,0.059719
1630679489929,0.041663,-0.035563,0.037271
1630679489939,0.03843,-0.0023179999999999997,0.056852
1630679489949,0.034404,0.053558,0.099064
1630679489958,0.036051,0.09698999999999999,0.138409
1630679489968,0.047214,0.100711,0.142313
1630679489977,0.062280999999999996,0.053801999999999996,0.104432
1630679489987,0.06801499999999999,0.0008539999999999999,0.059962999999999995
1630679489997,0.060451,-0.036539,0.032269
1630679490006,0.038064,-0.065514,0.033367
1630679490016,-0.0077469999999999995,-0.054778,0.10553
1630679490025,-0.078751,0.019275999999999998,0.245891
1630679490035,-0.183427,0.20935199999999998,0.506361
1630679490045,-0.294447,0.525149,0.86803
1630679490054,-0.323788,0.704062,1.12301
1630679490064,-0.25973799999999997,0.542839,1.1442379999999999
1630679490073,-0.23680199999999998,0.32787499999999997,1.072746
1630679490083,-0.285175,0.271084,1.084641
1630679490093,-0.333243,0.34099,1.149789
1630679490102,-0.373686,0.441701,1.190354
1630679490112,-0.481351,0.596275,1.292895
1630679490121,-0.640622,0.8651019999999999,1.600457
1630679490131,-0.709979,1.067561,1.947425
1630679490141,-0.755302,1.1439329999999999,1.998604
1630679490150,-0.7872049999999999,1.06018,1.998604
1630679490160,-0.797636,0.937021,1.998604
1630679490169,-0.780312,0.914573,1.939861
1630679490179,-0.758352,0.9581879999999999,1.842444
1630679490189,-0.71858,0.946842,1.772233
1630679490198,-0.668194,0.872544,1.654198
1630679490208,-0.606462,0.752313,1.472235
1630679490217,-0.525271,0.626836,1.256051
1630679490227,-0.433649,0.5231359999999999,1.048712
1630679490237,-0.350201,0.466223,0.8827309999999999
1630679490246,-0.288896,0.451766,0.777567
1630679490256,-0.246135,0.409493,0.671122
1630679490265,-0.199104,0.323056,0.561566
1630679490275,-0.143655,0.231739,0.468236
1630679490285,-0.091927,0.139507,0.397171
1630679490294,-0.049471,0.065819,0.341295
1630679490304,-0.013908,-0.0025009999999999998,0.27938
1630679490313,0.015555,-0.056608,0.20984
1630679490323,0.029951,-0.085034,0.142008
1630679490333,0.028731,-0.087352,0.078324
1630679490342,0.021167,-0.06709999999999999,0.031598
1630679490352,0.012627,-0.047275,-0.0037819999999999998
1630679490361,-0.003477,-0.038125,-0.027389
1630679490371,-0.008905999999999999,-0.033672,-0.038979
1630679490381,0.0030499999999999998,-0.044225,-0.044042
1630679490390,0.023058,-0.058438,-0.040809
1630679490400,0.041968,-0.057096,-0.020496
1630679490409,0.048434,-0.036112,0.035685
1630679490419,0.039894,0.008235,0.139141
1630679490429,0.009028,0.095465,0.318847
1630679490438,-0.081374,0.324215,0.643733
1630679490448,-0.21276799999999998,0.65514,1.077504
1630679490457,-0.275354,0.794464,1.316563
1630679490467,-0.187453,0.586759,1.25233
1630679490477,-0.119499,0.290055,1.069513
1630679490486,-0.121695,0.235216,0.9952759999999999
1630679490496,-0.123281,0.39711,1.067378
1630679490505,-0.141825,0.532835,1.125999
1630679490515,-0.255346,0.659044,1.318332
1630679490525,-0.379237,0.80581,1.6458409999999999
1630679490534,-0.463234,0.884073,1.877519
1630679490544,-0.47939899999999996,0.857721,1.998604
1630679490553,-0.447374,0.84912,1.998604
1630679490563,-0.40992,0.929823,1.976644
1630679490573,-0.408517,1.036146,1.9717639999999999
1630679490582,-0.414373,1.045906,1.957551
1630679490592,-0.409859,0.97966,1.918389
1630679490601,-0.391986,0.913719,1.8378079999999999
1630679490611,-0.3477,0.866322,1.735145
1630679490621,-0.282613,0.816912,1.597529
1630679490630,-0.20569199999999999,0.729926,1.4158709999999999
1630679490640,-0.146156,0.609695,1.204872
1630679490649,-0.106323,0.49202599999999996,1.008025
1630679490659,-0.086681,0.42273,0.8547319999999999
1630679490669,-0.072163,0.368013,0.724985
1630679490678,-0.053191999999999996,0.29670399999999997,0.60085
1630679490688,-0.04026,0.223809,0.47634899999999997
1630679490697,-0.031476,0.151524,0.360205
1630679490707,-0.019642,0.083692,0.256566
1630679490717,0.000793,-0.009211,0.152561
1630679490726,0.011285,-0.07033299999999999,0.06801499999999999
1630679490736,0.020984,-0.113704,-0.008357
1630679490745,0.012688,-0.09759999999999999,-0.033306
1630679490755,-0.008235,-0.024156,0.007686
1630679490765,-0.018788,0.063867,0.078202
1630679490774,-0.011773,0.111752,0.131699
1630679490784,0.006344,0.09211,0.137677
1630679490793,0.016165,0.032818,0.10607899999999999
1630679490803,-0.000366,-0.028426,0.086437
1630679490813,-0.040504,-0.043554,0.12486699999999999
1630679490822,-0.092537,-0.01769,0.24522
1630679490832,-0.174826,0.115717,0.499895
1630679490841,-0.249978,0.322141,0.832284
1630679490851,-0.281149,0.437004,1.04188
1630679490861,-0.26156799999999997,0.398208,1.068903
1630679490870,-0.264557,0.281698,1.043771
1630679490880,-0.278892,0.139812,1.056459
1630679490889,-0.288957,0.079056,1.058716
1630679490899,-0.315797,0.06478199999999999,1.070611
1630679490909,-0.374174,0.183,1.199626
1630679490918,-0.46177,0.418338,1.495781
1630679490928,-0.535885,0.7135779999999999,1.90198
1630679490937,-0.598044,0.846314,1.998604
1630679490947,-0.64599,0.734318,1.998604
1630679490957,-0.684542,0.547536,1.998604
1630679490966,-0.7090029999999999,0.508191,1.998604
1630679490976,-0.711504,0.583099,1.9455339999999999
1630679490985,-0.682712,0.594689,1.907043
1630679490995,-0.63257,0.577426,1.863611
1630679491005,-0.581574,0.541924,1.767353
1630679491014,-0.539667,0.484157,1.6066179999999999
1630679491024,-0.483852,0.38387299999999996,1.38531
1630679491033,-0.434991,0.335561,1.206763
1630679491043,-0.360205,0.28224699999999997,1.0395619999999999
1630679491053,-0.306647,0.270962,0.914817
1630679491062,-0.234667,0.232654,0.8063589999999999
1630679491072,-0.180926,0.188551,0.68991
1630679491081,-0.142069,0.11163,0.564128
1630679491091,-0.10431,0.039406,0.471286
1630679491101,-0.063135,-0.017446,0.381006
1630679491110,-0.029341,-0.078263,0.290299
1630679491120,-0.0064659999999999995,-0.111081,0.214659
1630679491129,0.005429,-0.11779099999999999,0.151097
1630679491139,0.011467999999999999,-0.102968,0.110471
1630679491149,0.008784,-0.07679899999999999,0.090646
1630679491158,0.008662,-0.055876,0.07869
1630679491168,0.012444,-0.056669,0.067222
1630679491177,0.018178,-0.070272,0.056791
1630679491187,0.032574,-0.096258,0.036112
1630679491197,0.038613,-0.128161,0.017873
1630679491206,0.044286,-0.14219099999999998,0.029523999999999998
1630679491216,0.041174999999999996,-0.120902,0.098454
1630679491225,0.039406,-0.079544,0.19733499999999998
1630679491235,0.025803,-0.033549999999999996,0.324642
1630679491245,-0.028791999999999998,0.093208,0.598227
1630679491254,-0.128039,0.360449,1.017236
1630679491264,-0.198006,0.5705939999999999,1.304241
1630679491273,-0.17610699999999999,0.516914,1.286368
1630679491283,-0.13663999999999998,0.270108,1.104405
1630679491293,-0.126392,0.13572499999999998,1.02358
1630679491302,-0.098027,0.185745,1.076406
1630679491312,-0.054778,0.295118,1.152778
1630679491321,-0.102114,0.40016,1.244949
1630679491331,-0.19794499999999998,0.518622,1.552572
1630679491341,-0.304878,0.651663,1.8916709999999999
1630679491350,-0.377285,0.72041,1.998604
1630679491360,-0.37746799999999997,0.722179,1.998604
1630679491369,-0.336537,0.735965,1.998604
1630679491379,-0.297192,0.8103239999999999,1.998604
1630679491389,-0.298107,0.880474,1.998604
1630679491398,-0.325191,0.86132,1.998604
1630679491408,-0.326228,0.80947,1.998604
1630679491417,-0.28731,0.76372,1.927661
1630679491427,-0.221308,0.713212,1.785592
1630679491437,-0.141093,0.622505,1.576667
1630679491446,-0.071004,0.500993,1.312964
1630679491456,-0.026047,0.379176,1.062376
1630679491465,-0.015616,0.298473,0.866322
1630679491475,-0.030987999999999998,0.252418,0.715164
1630679491485,-0.036417,0.20801,0.592676
1630679491494,-0.041846,0.17269099999999998,0.486658
1630679491504,-0.037637,0.141947,0.385093
1630679491513,-0.019032,0.093818,0.269559
1630679491523,0.009637999999999999,0.020739999999999998,0.148901
1630679491533,0.030866,-0.046238,0.051179
1630679491542,0.041663,-0.085034,-0.006893
1630679491552,0.038491,-0.081374,-0.015982
1630679491561,0.022875,-0.037698,0.029158
1630679491571,0.009271999999999999,0.010003999999999999,0.099552
1630679491581,0.0075639999999999995,0.028609,0.148779
1630679491590,0.013297999999999999,0.014457,0.150182
1630679491600,0.02379,-0.024095,0.12224399999999999
1630679491609,0.025131999999999998,-0.070089,0.083448
1630679491619,0.023302,-0.102419,0.064111
1630679491629,0.012199999999999999,-0.121878,0.087596
1630679491638,-0.01464,-0.099064,0.177693
1630679491648,-0.066429,-0.023912,0.342759
1630679491657,-0.158661,0.155367,0.647942
1630679491667,-0.23338599999999998,0.443836,1.047675
1630679491677,-0.23680199999999998,0.605181,1.260809
1630679491686,-0.203618,0.5228309999999999,1.258308
1630679491696,-0.217526,0.302194,1.169492
1630679491705,-0.275232,0.171654,1.128256
1630679491715,-0.324642,0.197091,1.19255
1630679491725,-0.398635,0.307074,1.305583
1630679491734,-0.543449,0.48714599999999997,1.53903
1630679491744,-0.628117,0.72224,1.9057009999999999
1630679491753,-0.675514,0.8845,1.998604
1630679491763,-0.694546,0.855159,1.998604
1630679491773,-0.7178479999999999,0.739808,1.998604
1630679491782,-0.714554,0.663863,1.998604
1630679491792,-0.693753,0.6916789999999999,1.924245
1630679491801,-0.676734,0.722728,1.84281
1630679491811,-0.630191,0.7074779999999999,1.776259
1630679491821,-0.5715089999999999,0.6375109999999999,1.633458
1630679491830,-0.509838,0.538874,1.452959
1630679491840,-0.453352,0.456463,1.260931
1630679491849,-0.397964,0.41168899999999997,1.091168
1630679491859,-0.338672,0.379969,0.94489
1630679491869,-0.285236,0.360205,0.824415
1630679491878,-0.226676,0.33000999999999997,0.719922
1630679491888,-0.17507,0.276025,0.618479
1630679491897,-0.124135,0.211975,0.516182
1630679491907,-0.079239,0.127124,0.414068
1630679491917,-0.045384,0.04758,0.320494
1630679491926,-0.018483,-0.008296,0.242536
1630679491936,-0.000244,-0.029951,0.186904
1630679491945,0.011163,-0.030683,0.138714
1630679491955,0.017995,-0.023424,0.08845
1630679491965,0.01464,-0.020069,0.040320999999999996
1630679491974,0.006954,-0.019642,0.007259
1630679491984,0.000732,-0.017202,-0.009455
1630679491993,0.00488,-0.028609,-0.02196
1630679492003,0.01464,-0.052399,-0.03294
1630679492013,0.022082,-0.068747,-0.036356
1630679492022,0.023607,-0.068564,-0.011346
1630679492032,0.018971,-0.03477,0.06478199999999999
1630679492041,0.007625,0.015372,0.174765
1630679492051,-0.038979,0.135664,0.37094099999999997
1630679492061,-0.140178,0.409371,0.710162
1630679492070,-0.241255,0.749751,1.095499
1630679492080,-0.24217,0.872849,1.2805119999999999
1630679492089,-0.139934,0.569496,1.14924
1630679492099,-0.09589199999999999,0.318969,1.005951
1630679492109,-0.097478,0.33061999999999997,1.024373
1630679492118,-0.078995,0.448716,1.101294
1630679492128,-0.114802,0.5678489999999999,1.154669
1630679492137,-0.269071,0.760792,1.428254
1630679492147,-0.38265299999999997,0.9441579999999999,1.802977
1630679492157,-0.443531,1.000461,1.9789619999999999
1630679492166,-0.43907799999999997,0.978135,1.998604
1630679492176,-0.401014,1.014308,1.998604
1630679492185,-0.356606,1.103246,1.998604
1630679492195,-0.35136,1.171627,1.978291
1630679492205,-0.37149,1.1346,1.889658
1630679492214,-0.371368,1.0778699999999999,1.8202399999999999
1630679492224,-0.340929,1.025044,1.7247139999999999
1630679492233,-0.282735,0.9455,1.578497
1630679492243,-0.210816,0.839421,1.3818329999999999
1630679492253,-0.155489,0.730841,1.1712609999999999
1630679492262,-0.132431,0.647454,0.991738
1630679492272,-0.119987,0.569862,0.8380179999999999
1630679492281,-0.108214,0.48531599999999997,0.690398
1630679492291,-0.09265899999999999,0.389851,0.547414
1630679492301,-0.074237,0.280783,0.410408
1630679492310,-0.060634,0.18934399999999998,0.30445099999999997
1630679492320,-0.042517,0.126697,0.23338599999999998
1630679492329,-0.020496,0.071065,0.173789
1630679492339,0.00061,0.019642,0.114131
1630679492349,0.012565999999999999,-0.0366,0.046665
1630679492358,0.017629,-0.072224,-0.0028669999999999998
1630679492368,0.008052,-0.055876,-0.0068319999999999995
1630679492377,0.000244,0.01159,0.037881
1630679492387,0.00549,0.07869,0.098942
1630679492397,0.027084,0.104188,0.13541999999999998
1630679492406,0.049044,0.080215,0.12224399999999999
1630679492416,0.058438,0.020557,0.073749
1630679492425,0.051118,-0.03599,0.046726
1630679492435,0.020191,-0.055876,0.083143
1630679492445,-0.037942,-0.017811999999999998,0.204289
1630679492454,-0.123464,0.117486,0.419253
1630679492464,-0.22844499999999998,0.395097,0.767624
1630679492473,-0.287371,0.654591,1.083116
1630679492483,-0.255285,0.640012,1.171688
1630679492493,-0.211243,0.415715,1.077382
1630679492502,-0.233142,0.251808,1.022543
1630679492512,-0.27938,0.249978,1.071282
1630679492521,-0.310063,0.3416,1.141554
1630679492531,-0.385154,0.479948,1.240862
1630679492541,-0.512095,0.756095,1.548973
1630679492550,-0.612806,1.050054,1.955111
1630679492560,-0.67771,1.145885,1.998604
1630679492569,-0.717116,1.018212,1.998604
1630679492579,-0.750422,0.846314,1.998604
1630679492589,-0.754753,0.787754,1.998604
1630679492598,-0.740235,0.8471069999999999,1.9324189999999999
1630679492608,-0.716872,0.8784,1.855315
1630679492617,-0.673074,0.836615,1.756434
1630679492627,-0.612745,0.739503,1.594113
1630679492637,-0.542656,0.623725,1.401902
