timestamp,ax,ay,az
1630680031266,-0.101504,0.0025009999999999998,0.991372
1630680031275,-0.10376099999999999,-0.001464,0.9888709999999999
1630680031285,-0.105164,-0.002074,0.990762
1630680031295,-0.105164,-0.003843,0.99491
1630680031304,-0.105103,-0.00488,1.001864
1630680031314,-0.10498099999999999,-0.008479,1.009184
1630680031323,-0.10437099999999999,-0.011041,1.013576
1630680031333,-0.103639,-0.017141,1.01077
1630680031343,-0.106506,-0.018239,1.008269
1630680031352,-0.106872,-0.015555,1.008696
1630680031362,-0.106262,-0.012565999999999999,1.006378
1630680031371,-0.107238,-0.006588,1.004243
1630680031381,-0.105896,-0.000976,1.003816
1630680031391,-0.10577399999999999,0.0064659999999999995,1.002352
1630680031400,-0.108641,0.007259,0.993873
1630680031410,-0.111264,0.007137,0.988566
1630680031419,-0.113216,0.008052,0.9858819999999999
1630680031429,-0.113216,0.012261,0.98454
1630680031439,-0.112606,0.019764,0.987651
1630680031448,-0.112606,0.027267,0.988078
1630680031458,-0.11254499999999999,0.032452,0.98393
1630680031467,-0.112484,0.035258,0.9791719999999999
1630680031477,-0.11315499999999999,0.03599,0.9755119999999999
1630680031487,-0.11376499999999999,0.03721,0.973316
1630680031496,-0.112057,0.039162,0.974475
1630680031506,-0.110105,0.040443,0.9770369999999999
1630680031515,-0.10919,0.042638999999999996,0.97905
1630680031525,-0.108458,0.045933,0.983808
1630680031535,-0.106262,0.047214,0.985333
1630680031544,-0.105469,0.048373,0.986736
1630680031554,-0.104249,0.049654,0.987956
1630680031563,-0.102907,0.050752,0.988322
1630678967009,-0.108458,0.326167,0.944707
1630678967019,-0.10736,0.32256799999999997,0.9459879999999999
1630678967028,-0.108336,0.321409,0.946049
1630678967038,-0.10675,0.320006,0.9505629999999999
1630678967047,-0.10675,0.321836,0.951234
1630678967057,-0.10668899999999999,0.321165,0.948977
1630678967067,-0.10858,0.319274,0.9472079999999999
1630678967076,-0.11102,0.320372,0.9447679999999999
1630678967086,-0.111325,0.318054,0.945927
1630678967095,-0.110776,0.320311,0.946537
1630678967105,-0.111081,0.320494,0.945195
1630678967115,-0.111569,0.326594,0.942694
1630678967124,-0.11053199999999999,0.329583,0.940742
1630678967134,-0.108214,0.332206,0.940864
1630678967143,-0.107421,0.331596,0.938668
1630678967153,-0.108214,0.332328,0.935557
1630678967163,-0.108275,0.329522,0.932507
1630678967172,-0.110776,0.332023,0.929152
1630678967182,-0.111386,0.330681,0.9268339999999999
1630678967191,-0.110776,0.331657,0.9250039999999999
1630678967201,-0.110288,0.33458499999999997,0.9225639999999999
1630678967211,-0.108214,0.338733,0.921283
1630678967220,-0.107543,0.345931,0.919636
1630678967230,-0.106262,0.35258,0.916708
1630678967239,-0.10614,0.357521,0.914268
1630678967249,-0.105042,0.363316,0.9095099999999999
1630678967259,-0.106628,0.365268,0.905362
1630678967268,-0.105408,0.36850099999999997,0.902678
1630678967278,-0.105103,0.369294,0.901641
1630678967287,-0.10406599999999999,0.369294,0.9015799999999999
1630678967297,-0.103334,0.37155099999999996,0.9009699999999999
1630678967307,-0.10113799999999999,0.374479,0.903593
1630678967316,-0.09991799999999999,0.374479,0.907253
1630678967326,-0.097722,0.37393,0.910547
1630678967335,-0.093696,0.371978,0.9140849999999999
1630678967345,-0.09143899999999999,0.372649,0.915366
1630678967355,-0.089975,0.373015,0.917562
1630678967364,-0.090768,0.37271,0.91866
1630678967374,-0.085766,0.369233,0.9207339999999999
1630678967383,-0.08356999999999999,0.36880599999999997,0.928908
1630678967393,-0.081252,0.366488,0.9375089999999999
1630678967403,-0.07869,0.364963,0.943182
1630678967412,-0.076738,0.363011,0.947086
1630678967422,-0.075396,0.367525,0.951966
1630678967431,-0.074969,0.375028,0.955321
1630678967441,-0.06954,0.360876,0.94611
1630678967451,-0.066978,0.360022,0.94611
1630678967460,-0.062403,0.35800899999999997,0.951722
1630678967470,-0.068869,0.38112799999999997,0.947757
1630678967479,-0.066063,0.361364,0.943792
1630678967489,-0.056424999999999996,0.36539,0.944585
1630678967499,-0.053801999999999996,0.373442,0.932202
1630678967508,-0.05307,0.36844,0.9216489999999999
1630678967518,-0.05307,0.374113,0.914939
1630678967527,-0.056424999999999996,0.391254,0.917745
1630678967537,-0.054229,0.395219,0.9182939999999999
1630678967547,-0.055388,0.399916,0.9040199999999999
1630678967556,-0.054839,0.401136,0.894016
1630678967566,-0.055876,0.409554,0.891454
1630678967575,-0.058682,0.422181,0.887733
1630678967585,-0.06039,0.43255099999999996,0.882182
1630678967595,-0.062464,0.438834,0.879315
1630678967604,-0.062037,0.441457,0.87169
1630678967614,-0.062952,0.443775,0.865224
1630678967623,-0.062891,0.44395799999999996,0.862906
1630678967633,-0.062403,0.444202,0.862601
1630678967643,-0.063806,0.447984,0.861564
1630678967652,-0.064111,0.451888,0.859063
1630678967662,-0.066002,0.45139999999999997,0.8577819999999999
1630678967671,-0.066551,0.449082,0.8565619999999999
1630678967681,-0.065819,0.449753,0.860344
1630678967691,-0.063928,0.452071,0.865834
1630678967700,-0.06222,0.44743499999999997,0.86742
1630678967710,-0.06161,0.445361,0.8726659999999999
1630678967719,-0.063562,0.445178,0.874252
1630678967729,-0.064294,0.444446,0.874679
1630678967739,-0.065331,0.439261,0.87779
1630678967748,-0.063074,0.43663799999999997,0.8836459999999999
1630678967758,-0.061,0.432612,0.884744
1630678967767,-0.058316,0.429379,0.8866959999999999
1630678967777,-0.056303,0.42578,0.892003
1630678967787,-0.054717,0.426024,0.898347
1630678967796,-0.053558,0.425353,0.902129
1630678967806,-0.054168,0.420656,0.906094
1630678967815,-0.05429,0.41358,0.9104249999999999
1630678967825,-0.05429,0.410103,0.915366
1630678967835,-0.053496999999999996,0.410103,0.9204289999999999
1630678967844,-0.052155,0.414983,0.925126
1630678967854,-0.051362,0.41602,0.9253089999999999
1630678967863,-0.051667,0.412421,0.925675
1630678967873,-0.052948,0.40760199999999996,0.9222589999999999
1630678967883,-0.053436,0.406321,0.920002
1630678967892,-0.055144,0.40424699999999997,0.918965
1630678967902,-0.055754,0.408944,0.918172
1630678967911,-0.056669,0.414617,0.914512
1630678967921,-0.058072,0.418277,0.9107299999999999
1630678967931,-0.061183,0.422547,0.906826
1630678967940,-0.063135,0.422425,0.904752
1630678967950,-0.06508699999999999,0.421571,0.9034099999999999
1630678967959,-0.065819,0.422669,0.900787
1630678967969,-0.06740499999999999,0.424499,0.899872
1630678967979,-0.066978,0.42828099999999997,0.899994
1630678967988,-0.067893,0.430538,0.8963949999999999
1630678967998,-0.070211,0.42645099999999997,0.894687
1630678968007,-0.069479,0.425109,0.890844
1630678968017,-0.07198,0.425109,0.88999
1630678968027,-0.073383,0.42767099999999997,0.890966
1630678968036,-0.075884,0.429867,0.887367
1630678968046,-0.07679899999999999,0.428525,0.886208
1630678968055,-0.075152,0.429013,0.886147
1630678968065,-0.074115,0.42858599999999997,0.885903
1630678968075,-0.073505,0.42639,0.886757
1630678968084,-0.072468,0.427305,0.890722
1630678968094,-0.07124799999999999,0.428708,0.8970049999999999
1630678968103,-0.071492,0.431148,0.899811
1630678968113,-0.072529,0.430599,0.900116
1630678968123,-0.069784,0.422608,0.8979199999999999
1630678968132,-0.067039,0.41778899999999997,0.896944
1630678968142,-0.06405,0.417911,0.902068
1630678968151,-0.060329,0.41229899999999997,0.905911
1630678968161,-0.058743,0.406748,0.9095099999999999
1630678968171,-0.057279,0.40333199999999997,0.914573
1630678968180,-0.053985,0.397842,0.917928
1630678968190,-0.052094,0.395951,0.9179889999999999
1630678968199,-0.047153,0.39070499999999997,0.92171
1630678968209,-0.044652,0.380884,0.926346
1630678968219,-0.044957,0.378505,0.931897
1630678968228,-0.043066,0.375882,0.940925
1630678968238,-0.046726,0.371368,0.9478179999999999
1630678968247,-0.045933,0.367708,0.9545279999999999
1630678968257,-0.041907,0.366,0.962336
1630678968267,-0.041479999999999996,0.37637,0.964166
1630678968276,-0.037942,0.381494,0.962214
1630678968286,-0.03721,0.382409,0.955931
1630678968295,-0.035563,0.392413,0.948916
1630678968305,-0.042822,0.406321,0.937448
1630678968315,-0.046238,0.413275,0.923601
1630678968324,-0.047092,0.41656899999999997,0.909388
1630678968334,-0.050325,0.424804,0.895419
1630678968343,-0.05063,0.431148,0.885598
1630678968353,-0.053131,0.439139,0.879803
1630678968363,-0.05307,0.45200999999999997,0.8754109999999999
1630678968372,-0.05307,0.45994,0.866078
1630678968382,-0.052948,0.471103,0.859978
1630678968391,-0.05246,0.478118,0.855098
1630678968401,-0.051057,0.490989,0.849913
1630678968411,-0.051484,0.507154,0.844423
1630678968420,-0.055205,0.519842,0.83936
1630678968430,-0.058682,0.525759,0.834602
1630678968439,-0.057583999999999996,0.531859,0.82777
1630678968449,-0.056242,0.544059,0.8221579999999999
1630678968459,-0.055815,0.55327,0.818803
1630678968468,-0.056242,0.5608339999999999,0.815326
1630678968478,-0.056547,0.564311,0.8133739999999999
1630678968487,-0.054046,0.56913,0.810385
1630678968497,-0.055632,0.569191,0.805566
1630678968507,-0.056364,0.566385,0.803736
1630678968516,-0.056119999999999996,0.565653,0.8052
1630678968526,-0.055327,0.5632739999999999,0.805688
1630678968535,-0.054107,0.564372,0.80703
1630678968545,-0.053436,0.568398,0.808372
1630678968555,-0.053863,0.573156,0.80825
1630678968564,-0.054168,0.575047,0.80825
1630678968574,-0.053436,0.573766,0.809775
1630678968583,-0.054046,0.574864,0.810385
1630678968593,-0.055083,0.576633,0.810568
1630678968603,-0.055632,0.576755,0.81069
1630678968612,-0.057706,0.57645,0.812032
1630678968622,-0.058987,0.576938,0.810385
1630678968631,-0.058193999999999996,0.577426,0.810995
1630678968641,-0.058377,0.574742,0.812703
1630678968651,-0.060329,0.573766,0.813801
1630678968660,-0.060024,0.570838,0.814228
1630678968670,-0.059841,0.568276,0.817644
1630678968679,-0.059047999999999996,0.5632739999999999,0.820206
1630678968689,-0.058682,0.565958,0.822219
1630678968699,-0.059414,0.567422,0.824354
1630678968708,-0.059047999999999996,0.566812,0.826184
1630678968718,-0.060511999999999996,0.562237,0.826062
1630678968727,-0.06222,0.562115,0.823744
1630678968737,-0.061854,0.562847,0.825269
1630678968747,-0.06222,0.5608339999999999,0.8279529999999999
1630678968756,-0.060511999999999996,0.559431,0.830149
1630678968766,-0.06039,0.556625,0.829356
1630678968775,-0.058621,0.550403,0.827526
1630678968785,-0.058377,0.554368,0.827221
1630678968795,-0.062586,0.561932,0.826245
1630678968804,-0.064111,0.5644939999999999,0.82289
1630678968814,-0.063684,0.561566,0.819108
1630678968823,-0.063562,0.5638839999999999,0.8158139999999999
1630678968833,-0.063318,0.56547,0.812581
1630678968843,-0.063379,0.56608,0.8136789999999999
1630678968852,-0.061488,0.564982,0.818498
1630678968862,-0.060634,0.5635789999999999,0.820755
1630678968871,-0.059292,0.561871,0.823195
1630678968881,-0.056974,0.559614,0.8258179999999999
1630678968891,-0.055570999999999995,0.558699,0.828441
1630678968900,-0.054351,0.557906,0.8288679999999999
1630678968910,-0.054655999999999996,0.554063,0.8282579999999999
1630678968919,-0.055693,0.55449,0.828319
1630678968929,-0.05734,0.556381,0.8270379999999999
1630678968939,-0.056303,0.556198,0.8252079999999999
1630678968948,-0.056364,0.557113,0.8258179999999999
1630678968958,-0.056913,0.55876,0.8261229999999999
1630678968967,-0.056729999999999996,0.559065,0.826367
1630678968977,-0.056729999999999996,0.558638,0.825696
1630678968987,-0.056547,0.558577,0.826306
1630678968996,-0.055632,0.556259,0.826916
1630678969006,-0.055022,0.557235,0.8288679999999999
1630678969015,-0.054351,0.5608339999999999,0.825086
1630678969025,-0.055449,0.562542,0.824232
1630678969035,-0.053863,0.5626639999999999,0.826367
1630678969044,-0.054960999999999996,0.560468,0.822097
1630678969054,-0.056364,0.558028,0.819962
1630678969063,-0.055815,0.558333,0.820328
1630678969073,-0.055265999999999996,0.561932,0.820633
1630678969083,-0.055998,0.560773,0.821243
1630678969092,-0.055937,0.559309,0.8221579999999999
1630678969102,-0.057157,0.556076,0.822829
1630678969111,-0.058377,0.555649,0.8239879999999999
1630678969121,-0.057645,0.55388,0.826001
1630678969131,-0.05795,0.555405,0.828685
1630678969140,-0.057828,0.55571,0.8296
1630678969150,-0.058987,0.556381,0.828014
1630678969159,-0.057583999999999996,0.553392,0.826855
1630678969169,-0.057767,0.549244,0.8276479999999999
1630678969179,-0.058804,0.547292,0.828929
1630678969188,-0.059047999999999996,0.545706,0.82899
1630678969198,-0.059657999999999996,0.545584,0.832162
1630678969207,-0.059475,0.546133,0.8322229999999999
1630678969217,-0.058255,0.55083,0.833687
1630678969227,-0.056119999999999996,0.542473,0.834236
1630678969236,-0.05551,0.544242,0.835944
1630678969246,-0.057034999999999995,0.549061,0.8357
1630678969255,-0.056181,0.548268,0.836005
1630678969265,-0.056729999999999996,0.550464,0.8340529999999999
1630678969275,-0.05795,0.55022,0.832955
1630678969284,-0.058011,0.550159,0.833016
1630678969294,-0.055815,0.548024,0.83143
1630678969303,-0.058621,0.55388,0.831796
1630678969313,-0.055570999999999995,0.548329,0.83448
1630678969323,-0.052032999999999996,0.529236,0.8346629999999999
1630678969332,-0.052826,0.531798,0.83448
1630678969342,-0.055632,0.534299,0.833992
1630678969351,-0.056059,0.537471,0.833931
1630678969361,-0.052886999999999997,0.53497,0.837225
1630678969371,-0.050752,0.536434,0.839116
1630678969380,-0.053619,0.542961,0.838994
1630678969390,-0.049898,0.547048,0.824964
1630678969399,-0.054960999999999996,0.548146,0.838689
1630678969409,-0.05246,0.549671,0.848693
1630678969419,-0.053314,0.538996,0.832772
1630678969428,-0.056424999999999996,0.540521,0.8346629999999999
1630678969438,-0.0549,0.5416799999999999,0.838567
1630678969447,-0.053496999999999996,0.538813,0.8358829999999999
1630678969457,-0.052704,0.5386299999999999,0.836371
1630678969467,-0.051362,0.535397,0.836859
1630678969476,-0.049958999999999996,0.543266,0.840275
1630678969486,-0.052094,0.551745,0.844545
1630678969495,-0.054717,0.552355,0.843569
1630678969505,-0.059475,0.55937,0.837286
1630678969515,-0.060329,0.562176,0.829417
1630678969524,-0.05917,0.557418,0.82411
1630678969534,-0.06222,0.55632,0.816546
1630678969543,-0.066063,0.562237,0.8130689999999999
1630678969553,-0.067527,0.569252,0.809287
1630678969563,-0.070577,0.574132,0.807518
1630678969572,-0.072895,0.581086,0.808677
1630678969582,-0.074847,0.5946279999999999,0.804407
1630678969591,-0.081557,0.604327,0.798307
1630678969601,-0.083509,0.608048,0.798978
1630678969611,-0.084912,0.607865,0.795745
1630678969620,-0.086559,0.5952379999999999,0.785619
1630678969630,-0.084668,0.583038,0.783972
1630678969639,-0.084241,0.592859,0.788852
1630678969649,-0.083814,0.599386,0.796965
1630678969659,-0.082838,0.595116,0.796538
1630678969668,-0.084424,0.595055,0.798246
1630678969678,-0.08418,0.593591,0.797148
1630678969687,-0.08479,0.586332,0.793671
1630678969697,-0.08356999999999999,0.580232,0.795318
1630678969707,-0.083021,0.5734,0.7999539999999999
1630678969716,-0.080764,0.574498,0.805627
1630678969726,-0.081679,0.579195,0.807823
1630678969735,-0.078385,0.581025,0.810995
1630678969745,-0.077165,0.57828,0.815082
1630678969755,-0.077348,0.578158,0.819474
1630678969764,-0.08064199999999999,0.583343,0.819474
1630678969774,-0.080215,0.573583,0.80764
1630678969783,-0.080154,0.564616,0.803248
1630678969793,-0.078324,0.56547,0.808555
1630678969803,-0.068137,0.5465599999999999,0.8005639999999999
1630678969812,-0.072407,0.573949,0.840824
1630678969822,-0.071797,0.574803,0.843142
1630678969831,-0.076006,0.5614439999999999,0.814533
1630678969841,-0.07991,0.569008,0.813313
1630678969851,-0.078019,0.574315,0.818742
1630678969860,-0.075457,0.5718139999999999,0.8221579999999999
1630678969870,-0.073688,0.566507,0.825696
1630678969879,-0.072102,0.563945,0.823744
1630678969889,-0.074542,0.564921,0.820633
1630678969899,-0.073688,0.560712,0.820389
1630678969908,-0.07198,0.555527,0.821304
1630678969918,-0.072468,0.553636,0.8235
1630678969927,-0.070882,0.55327,0.8267329999999999
1630678969937,-0.07137,0.547109,0.8319179999999999
1630678969947,-0.078324,0.559248,0.840092
1630678969956,-0.07094299999999999,0.541436,0.818803
1630678969966,-0.074603,0.55388,0.827892
1630678969975,-0.075518,0.561932,0.837286
1630678969985,-0.076616,0.5611389999999999,0.8261229999999999
1630678969995,-0.079971,0.559248,0.82045
1630678970004,-0.079056,0.555832,0.822219
1630678970014,-0.079361,0.557418,0.818498
1630678970023,-0.083936,0.559736,0.814167
1630678970033,-0.08234999999999999,0.564433,0.814167
1630678970043,-0.08418,0.565958,0.811422
1630678970052,-0.082167,0.563762,0.81252
1630678970062,-0.085766,0.5608339999999999,0.8127639999999999
1630678970071,-0.083204,0.5612,0.8142889999999999
1630678970081,-0.085339,0.564616,0.815875
1630678970091,-0.083509,0.570106,0.817034
1630678970100,-0.08588799999999999,0.57218,0.815265
1630678970110,-0.083997,0.569557,0.8118489999999999
1630678970119,-0.084546,0.564921,0.8130689999999999
1630678970129,-0.08326499999999999,0.557967,0.815021
1630678970139,-0.08295999999999999,0.558638,0.8161189999999999
1630678970148,-0.085949,0.562847,0.816363
1630678970158,-0.086132,0.567422,0.81923
1630678970167,-0.083875,0.567117,0.82167
1630678970177,-0.085644,0.5641889999999999,0.819413
1630678970187,-0.088694,0.565226,0.816546
1630678970196,-0.089304,0.564616,0.816485
1630678970206,-0.091866,0.566751,0.817278
1630678970215,-0.093086,0.56913,0.818376
1630678970225,-0.091622,0.570838,0.816241
1630678970235,-0.092537,0.571265,0.816363
1630678970244,-0.093757,0.5721189999999999,0.817156
1630678970254,-0.09467199999999999,0.576206,0.818193
1630678970263,-0.093696,0.5795,0.815936
1630678970273,-0.09467199999999999,0.581086,0.813313
1630678970283,-0.095343,0.58316,0.812337
1630678970292,-0.09497699999999999,0.580903,0.8109339999999999
1630678970302,-0.09467199999999999,0.579927,0.809287
1630678970311,-0.097722,0.582184,0.80581
1630678970321,-0.098271,0.581452,0.804956
1630678970331,-0.098454,0.581574,0.804102
1630678970340,-0.101321,0.58133,0.800808
1630678970350,-0.102724,0.580476,0.801723
1630678970359,-0.102541,0.579073,0.8042239999999999
1630678970369,-0.102541,0.576694,0.804468
1630678970379,-0.101626,0.575047,0.8066639999999999
1630678970388,-0.10126,0.576145,0.8091039999999999
1630678970398,-0.10052799999999999,0.572607,0.811483
1630678970407,-0.100955,0.57279,0.815753
1630678970417,-0.100772,0.568703,0.817644
1630678970427,-0.100711,0.568032,0.821426
1630678970436,-0.099735,0.562542,0.823866
1630678970446,-0.102724,0.558211,0.826306
1630678970455,-0.102419,0.55144,0.827587
1630678970465,-0.101321,0.542168,0.827282
1630678970475,-0.097966,0.533384,0.8285629999999999
1630678970484,-0.099308,0.530029,0.83326
1630678970494,-0.098759,0.527223,0.838445
1630678970503,-0.096929,0.526552,0.839299
1630678970513,-0.099186,0.525759,0.837469
1630678970523,-0.098332,0.525637,0.8377129999999999
1630678970532,-0.098088,0.52521,0.841251
1630678970542,-0.09638,0.52216,0.845948
1630678970551,-0.097539,0.515145,0.848754
1630678970561,-0.09851499999999999,0.508618,0.849913
1630678970571,-0.098149,0.505995,0.85095
1630678970580,-0.099979,0.508008,0.851926
1630678970590,-0.100406,0.506727,0.852353
1630678970599,-0.099674,0.503372,0.853939
1630678970609,-0.099064,0.504409,0.8583919999999999
1630678970619,-0.099186,0.502884,0.8599169999999999
1630678970628,-0.09991799999999999,0.502335,0.860954
1630678970638,-0.100406,0.501847,0.861869
1630678970647,-0.101687,0.501725,0.860771
1630678970657,-0.104127,0.501603,0.857233
1630678970667,-0.106811,0.49916299999999997,0.854
1630678970676,-0.1098,0.49324599999999996,0.85278
1630678970686,-0.108214,0.489098,0.854244
1630678970695,-0.1037,0.489464,0.857965
1630678970705,-0.101077,0.492758,0.862174
1630678970715,-0.100406,0.496174,0.865834
1630678970724,-0.099979,0.497577,0.866383
1630678970734,-0.100589,0.497394,0.8651019999999999
1630678970743,-0.100162,0.496174,0.864309
1630678970753,-0.098149,0.49776,0.865834
1630678970763,-0.096868,0.49794299999999997,0.866078
1630678970772,-0.099125,0.497089,0.8629669999999999
1630678970782,-0.101016,0.496296,0.8602219999999999
1630678970791,-0.099552,0.497089,0.859246
1630678970801,-0.097661,0.501359,0.86132
1630678970811,-0.098027,0.503677,0.860649
1630678970820,-0.10126,0.503982,0.858758
1630678970830,-0.10309,0.499834,0.85644
1630678970839,-0.101077,0.501298,0.855525
1630678970849,-0.098149,0.503189,0.857294
1630678970859,-0.098088,0.505812,0.859246
1630678970868,-0.097356,0.507764,0.859368
1630678970878,-0.098149,0.506605,0.8583919999999999
1630678970887,-0.099796,0.507215,0.855525
1630678970897,-0.098942,0.506422,0.854854
1630678970907,-0.098454,0.504287,0.855464
1630678970916,-0.09881999999999999,0.502213,0.854366
1630678970926,-0.099308,0.503311,0.8522919999999999
1630678970935,-0.099491,0.506849,0.851255
1630678970945,-0.09851499999999999,0.510204,0.851255
1630678970955,-0.098759,0.514047,0.851316
1630678970964,-0.099186,0.516182,0.848815
1630678970974,-0.100711,0.518683,0.846863
1630678970983,-0.101565,0.517402,0.845887
1630678970993,-0.100284,0.518378,0.847839
1630678971003,-0.098942,0.5191709999999999,0.848388
1630678971012,-0.09759999999999999,0.520879,0.848205
1630678971022,-0.096136,0.52155,0.850096
1630678971031,-0.095648,0.521489,0.851194
1630678971041,-0.095404,0.525515,0.848815
1630678971051,-0.096014,0.524783,0.844789
1630678971060,-0.09528199999999999,0.525637,0.839482
1630678971070,-0.095709,0.525393,0.836249
1630678971079,-0.094306,0.52765,0.83509
1630678971089,-0.094306,0.526796,0.835456
1630678971099,-0.09028,0.525759,0.8355779999999999
1630678971108,-0.087535,0.527284,0.83814
1630678971118,-0.085339,0.530883,0.842776
1630678971127,-0.084058,0.53131,0.84302
1630678971137,-0.08234999999999999,0.530029,0.841129
1630678971147,-0.081679,0.530334,0.840092
1630678971156,-0.083387,0.531005,0.83875
1630678971166,-0.080581,0.529785,0.83997
1630678971175,-0.078202,0.528931,0.843264
1630678971185,-0.077226,0.529968,0.846375
1630678971195,-0.07503,0.536007,0.845216
1630678971204,-0.076006,0.538508,0.844972
1630678971214,-0.075091,0.536129,0.842044
1630678971223,-0.073139,0.535153,0.838079
1630678971233,-0.07356599999999999,0.535946,0.834724
1630678971243,-0.075396,0.534055,0.833382
1630678971252,-0.075579,0.533689,0.830637
1630678971262,-0.07679899999999999,0.535458,0.829661
1630678971271,-0.076006,0.538752,0.830454
1630678971281,-0.076433,0.5395449999999999,0.8296
1630678971291,-0.076982,0.543632,0.8276479999999999
1630678971300,-0.078202,0.548451,0.82411
1630678971310,-0.077653,0.547048,0.821487
1630678971319,-0.078324,0.549061,0.819657
1630678971329,-0.07911699999999999,0.551745,0.81923
1630678971339,-0.078263,0.554124,0.819657
1630678971348,-0.07942199999999999,0.553392,0.818803
1630678971358,-0.079056,0.552843,0.820755
1630678971367,-0.079666,0.55144,0.823134
1630678971377,-0.079178,0.551806,0.824354
1630678971387,-0.078324,0.55449,0.82777
1630678971396,-0.080215,0.55571,0.829112
1630678971406,-0.080093,0.55449,0.828502
1630678971415,-0.078568,0.553392,0.82777
1630678971425,-0.077836,0.553209,0.8273429999999999
1630678971435,-0.0793,0.555222,0.829539
1630678971444,-0.077531,0.55571,0.8291729999999999
1630678971454,-0.079178,0.555832,0.8255129999999999
1630678971463,-0.08064199999999999,0.55449,0.823744
1630678971473,-0.081435,0.555283,0.821365
1630678971483,-0.081923,0.555405,0.820999
1630678971492,-0.08174,0.55388,0.822646
1630678971502,-0.081923,0.554734,0.823561
1630678971511,-0.08174,0.556442,0.8224629999999999
1630678971521,-0.08234999999999999,0.556869,0.823134
1630678971531,-0.081984,0.557845,0.823622
1630678971540,-0.082289,0.557906,0.8252079999999999
1630678971550,-0.080947,0.557906,0.8242929999999999
1630678971559,-0.079971,0.557906,0.822219
1630678971569,-0.080764,0.557662,0.82106
1630678971579,-0.081252,0.559431,0.821731
1630678971588,-0.080703,0.5614439999999999,0.819047
1630678971598,-0.081557,0.562298,0.816546
1630678971607,-0.08234999999999999,0.563091,0.815143
1630678971617,-0.081923,0.565287,0.814472
1630678971627,-0.084424,0.565775,0.813618
1630678971636,-0.084485,0.5626639999999999,0.81435
1630678971646,-0.085461,0.562542,0.8158139999999999
1630678971655,-0.08527799999999999,0.563396,0.818864
1630678971665,-0.085034,0.56181,0.819901
1630678971675,-0.085461,0.560651,0.821121
1630678971684,-0.084668,0.558699,0.8227679999999999
1630678971694,-0.086315,0.555832,0.82228
1630678971703,-0.08601,0.553636,0.824171
1630678971713,-0.08619299999999999,0.553697,0.824964
1630678971723,-0.085827,0.556015,0.826062
1630678971732,-0.08601,0.555527,0.826306
1630678971742,-0.08588799999999999,0.554673,0.827099
1630678971751,-0.08619299999999999,0.555466,0.8294779999999999
1630678971761,-0.087779,0.553026,0.830271
1630678971771,-0.08851099999999999,0.549,0.8294779999999999
1630678971780,-0.087291,0.550159,0.828929
1630678971790,-0.088145,0.5477799999999999,0.8296
1630678971799,-0.08820599999999999,0.549061,0.829539
1630678971809,-0.087474,0.548939,0.828136
1630678971819,-0.088572,0.549671,0.827892
1630678971828,-0.08790099999999999,0.553453,0.825574
1630678971838,-0.08784,0.556015,0.82594
1630678971847,-0.087352,0.555283,0.8245979999999999
1630678971857,-0.088694,0.552843,0.821914
1630678971867,-0.088267,0.552111,0.821548
1630678971876,-0.08906,0.551684,0.821548
1630678971886,-0.090219,0.550464,0.824659
1630678971895,-0.088694,0.548756,0.829417
1630678971905,-0.08723,0.548451,0.831125
1630678971915,-0.086559,0.549976,0.833687
1630678971924,-0.087291,0.549793,0.83326
1630678971934,-0.087352,0.549427,0.832772
1630678971943,-0.087352,0.549061,0.8300879999999999
1630678971953,-0.088694,0.547658,0.827099
1630678971963,-0.090036,0.545828,0.825879
1630678971972,-0.09174399999999999,0.545706,0.825574
1630678971982,-0.090463,0.546011,0.828014
1630678971991,-0.091622,0.547292,0.8297829999999999
1630678972001,-0.09174399999999999,0.550098,0.830332
1630678972011,-0.093208,0.551257,0.829661
1630678972020,-0.093391,0.550586,0.829722
1630678972030,-0.093208,0.547841,0.830332
1630678972039,-0.091805,0.547902,0.8316129999999999
1630678972049,-0.093208,0.547109,0.832345
1630678972059,-0.093269,0.546987,0.831857
1630678972068,-0.092964,0.544974,0.831125
1630678972078,-0.092232,0.546316,0.8306979999999999
1630678972087,-0.093879,0.5477799999999999,0.8306979999999999
1630678972097,-0.093818,0.5474749999999999,0.828014
1630678972107,-0.095343,0.546316,0.8276479999999999
1630678972116,-0.09589199999999999,0.542473,0.829051
1630678972126,-0.095648,0.5367999999999999,0.8310029999999999
1630678972135,-0.094794,0.531676,0.8358829999999999
1630678972145,-0.093025,0.529175,0.83875
1630678972155,-0.092964,0.52948,0.8361879999999999
1630678972164,-0.090768,0.528138,0.83204
1630678972174,-0.090768,0.53314,0.827404
1630678972183,-0.090524,0.546743,0.823317
1630678972193,-0.087657,0.576084,0.818376
1630678972203,-0.094489,0.598898,0.811117
1630678972212,-0.102724,0.594384,0.804407
1630678972222,-0.107055,0.584136,0.796721
1630678972231,-0.105286,0.571692,0.796416
1630678972241,-0.101321,0.5612,0.796477
1630678972251,-0.100345,0.548573,0.805078
1630678972260,-0.096441,0.527528,0.825757
1630678972270,-0.08588799999999999,0.502701,0.8479
1630678972279,-0.07808,0.491477,0.860954
1630678972289,-0.071065,0.482022,0.8738859999999999
1630678972299,-0.065941,0.47604399999999997,0.878949
1630678972308,-0.063013,0.478057,0.877912
1630678972318,-0.062280999999999996,0.485194,0.880779
1630678972327,-0.060085,0.491965,0.880352
1630678972337,-0.063928,0.490013,0.879864
1630678972347,-0.063257,0.48495,0.885842
1630678972356,-0.062647,0.482693,0.890112
1630678972366,-0.060634,0.482937,0.892979
1630678972375,-0.062647,0.487695,0.896883
1630678972385,-0.064416,0.488488,0.8957849999999999
1630678972395,-0.066795,0.493978,0.889502
1630678972404,-0.07002799999999999,0.500688,0.883585
1630678972414,-0.074298,0.504958,0.876082
1630678972423,-0.07808,0.505751,0.868823
1630678972433,-0.081618,0.507276,0.8635769999999999
1630678972443,-0.08418,0.507825,0.859063
1630678972452,-0.08619299999999999,0.505324,0.85095
1630678972462,-0.088389,0.508313,0.842288
1630678972471,-0.089487,0.5188659999999999,0.834602
1630678972481,-0.091866,0.527284,0.828136
1630678972491,-0.095465,0.527772,0.820389
1630678972500,-0.101016,0.528016,0.812642
1630678972510,-0.105164,0.526308,0.810568
1630678972519,-0.108458,0.5200859999999999,0.809836
1630678972529,-0.11102,0.515694,0.810385
1630678972539,-0.114131,0.51789,0.810141
1630678972548,-0.11102,0.530456,0.808677
1630678972558,-0.106445,0.554917,0.806298
1630678972567,-0.109678,0.576877,0.79727
1630678972577,-0.11669299999999999,0.579378,0.793488
1630678972587,-0.118889,0.570045,0.795806
1630678972596,-0.119499,0.55693,0.801845
1630678972606,-0.11895,0.5416799999999999,0.805932
1630678972615,-0.11547299999999999,0.522465,0.813801
1630678972625,-0.111508,0.507276,0.829051
1630678972635,-0.104615,0.494954,0.848144
1630678972644,-0.09516,0.48922,0.868091
1630678972654,-0.085339,0.4941,0.88145
1630678972663,-0.081313,0.503555,0.882853
1630678972673,-0.081557,0.507337,0.87962
1630678972683,-0.083509,0.507276,0.881999
1630678972692,-0.084119,0.501176,0.888404
1630678972702,-0.082167,0.496174,0.891637
1630678972711,-0.079849,0.493612,0.893406
1630678972721,-0.078446,0.492758,0.8939549999999999
1630678972731,-0.077714,0.492758,0.893223
1630678972740,-0.07747,0.492575,0.892796
1630678972750,-0.079178,0.49294099999999996,0.889868
1630678972759,-0.080154,0.49580799999999997,0.886025
1630678972769,-0.082594,0.49898,0.880718
1630678972779,-0.08588799999999999,0.499529,0.874984
1630678972788,-0.089304,0.499407,0.870104
1630678972798,-0.092171,0.499834,0.865163
1630678972807,-0.095099,0.501298,0.861503
1630678972817,-0.098454,0.498675,0.8580869999999999
1630678972827,-0.099796,0.496052,0.854244
1630678972836,-0.102175,0.493734,0.850828
1630678972846,-0.102907,0.490928,0.850401
1630678972855,-0.105103,0.49233099999999996,0.8495469999999999
1630678972865,-0.106628,0.490623,0.8474119999999999
1630678972875,-0.10900699999999999,0.491782,0.844667
1630678972884,-0.112179,0.493978,0.840092
1630678972894,-0.114741,0.494039,0.837164
1630678972903,-0.116815,0.495381,0.832711
1630678972913,-0.117974,0.502274,0.826855
1630678972923,-0.122305,0.50813,0.824659
1630678972932,-0.124745,0.508557,0.825391
1630678972942,-0.126087,0.507398,0.8264279999999999
1630678972951,-0.128222,0.503372,0.829051
1630678972961,-0.12864899999999999,0.496235,0.831796
1630678972971,-0.12627,0.48806099999999997,0.837591
1630678972980,-0.122915,0.485682,0.845521
1630678972990,-0.120658,0.48531599999999997,0.853024
1630678972999,-0.116266,0.479216,0.86071
1630678973009,-0.113643,0.47641,0.869677
1630678973019,-0.11022699999999999,0.472933,0.875655
1630678973028,-0.108946,0.468663,0.880657
1630678973038,-0.10729899999999999,0.465674,0.8876109999999999
1630678973047,-0.106262,0.4636,0.892186
1630678973057,-0.10431,0.45975699999999997,0.893772
1630678973067,-0.103273,0.459513,0.895907
1630678973076,-0.102236,0.459025,0.897432
1630678973086,-0.10065,0.457317,0.897127
1630678973095,-0.09991799999999999,0.458293,0.895602
1630678973105,-0.099796,0.459513,0.894931
1630678973115,-0.100162,0.459513,0.895114
1630678973124,-0.100894,0.457988,0.892552
1630678973134,-0.101626,0.45505999999999996,0.890722
1630678973143,-0.101992,0.455121,0.88938
1630678973153,-0.103212,0.456341,0.888892
1630678973163,-0.103578,0.459086,0.888343
1630678973172,-0.10345599999999999,0.461099,0.88694
1630678973182,-0.10498099999999999,0.463844,0.883402
1630678973191,-0.106506,0.468053,0.8790709999999999
1630678973201,-0.108519,0.469578,0.873642
1630678973211,-0.109556,0.470005,0.870592
1630678973220,-0.11163,0.470249,0.865956
1630678973230,-0.114131,0.470615,0.86437
1630678973239,-0.115412,0.47116399999999997,0.864126
1630678973249,-0.11834,0.47207899999999997,0.8602219999999999
1630678973259,-0.120475,0.472262,0.859368
1630678973268,-0.121146,0.471713,0.856806
1630678973278,-0.12224399999999999,0.470554,0.854671
1630678973287,-0.122976,0.469639,0.854488
1630678973297,-0.122488,0.470188,0.855586
1630678973307,-0.122915,0.469029,0.856135
1630678973316,-0.12315899999999999,0.47177399999999997,0.858453
1630678973326,-0.123403,0.471286,0.8596119999999999
1630678973335,-0.12395199999999999,0.472445,0.86254
1630678973345,-0.125111,0.472506,0.86315
1630678973355,-0.12444,0.470981,0.865468
1630678973364,-0.125538,0.468663,0.867725
1630678973374,-0.126636,0.464698,0.87047
1630678973383,-0.126941,0.460489,0.872117
1630678973393,-0.126819,0.457195,0.8754109999999999
1630678973403,-0.124806,0.456707,0.879864
1630678973412,-0.122488,0.460306,0.8830359999999999
1630678973422,-0.122976,0.461953,0.8854759999999999
1630678973431,-0.122366,0.461465,0.887428
1630678973441,-0.120292,0.460184,0.888038
1630678973451,-0.12071899999999999,0.460001,0.888343
1630678973460,-0.119804,0.458415,0.8879159999999999
1630678973470,-0.120048,0.457012,0.8873059999999999
1630678973479,-0.120414,0.458476,0.88511
1630678973489,-0.12139,0.457195,0.883585
1630678973499,-0.12139,0.457927,0.881755
1630678973508,-0.12254899999999999,0.457988,0.878644
1630678973518,-0.12254899999999999,0.457683,0.87657
1630678973527,-0.122732,0.456341,0.875655
1630678973537,-0.121878,0.4575,0.874679
1630678973547,-0.12078,0.458964,0.874435
1630678973556,-0.120109,0.45933,0.874252
1630678973566,-0.12139,0.463844,0.87474
1630678973575,-0.120658,0.46616199999999997,0.874069
1630678973585,-0.121085,0.46848,0.87291
1630678973595,-0.122,0.470127,0.87108
1630678973604,-0.12315899999999999,0.470554,0.868213
1630678973614,-0.123708,0.473055,0.8662
1630678973623,-0.12505,0.471713,0.863699
1630678973633,-0.125599,0.472872,0.8629669999999999
1630678973643,-0.124684,0.474641,0.864248
1630678973652,-0.122122,0.476715,0.86742
1630678973662,-0.120658,0.478362,0.868213
1630678973671,-0.120353,0.479216,0.867176
1630678973681,-0.119682,0.47702,0.863943
1630678973691,-0.11992599999999999,0.475251,0.86376
1630678973700,-0.12071899999999999,0.472811,0.864248
1630678973710,-0.121756,0.470432,0.866749
1630678973719,-0.121146,0.468968,0.86681
1630678973729,-0.121573,0.471286,0.865773
1630678973739,-0.122305,0.474397,0.86559
1630678973748,-0.123586,0.479033,0.863943
1630678973758,-0.122915,0.481351,0.86132
1630678973767,-0.121756,0.484035,0.861564
1630678973777,-0.12139,0.48684099999999997,0.8623569999999999
1630678973787,-0.12071899999999999,0.48684099999999997,0.864858
1630678973796,-0.120475,0.48501099999999997,0.866749
1630678973806,-0.120414,0.483608,0.867603
1630678973815,-0.118218,0.481107,0.871324
1630678973825,-0.114375,0.478545,0.873642
1630678973835,-0.111752,0.47885,0.874618
1630678973844,-0.111752,0.47787399999999997,0.8729709999999999
1630678973854,-0.109495,0.47604399999999997,0.868823
1630678973863,-0.10900699999999999,0.473787,0.862418
1630678973873,-0.108824,0.475861,0.858209
1630678973883,-0.10858,0.47336,0.855891
1630678973892,-0.107421,0.47482399999999997,0.85583
1630678973902,-0.108336,0.472628,0.856318
1630678973911,-0.109373,0.470981,0.8559519999999999
1630678973921,-0.111081,0.467199,0.856379
1630678973931,-0.112057,0.46555199999999997,0.858636
1630678973940,-0.11376499999999999,0.46250199999999997,0.861869
1630678973950,-0.114009,0.46280699999999997,0.867664
1630678973959,-0.1159,0.462258,0.871812
1630678973969,-0.116205,0.46421,0.874435
1630678973979,-0.118584,0.46604,0.875472
1630678973988,-0.121756,0.46860199999999996,0.875655
1630678973998,-0.12071899999999999,0.47268899999999997,0.874374
1630678974007,-0.121268,0.477996,0.873459
1630678974017,-0.123891,0.480985,0.870592
1630678974027,-0.125904,0.48348599999999997,0.86803
1630678974036,-0.126941,0.48501099999999997,0.866383
1630678974046,-0.129381,0.48556,0.865895
1630678974055,-0.130418,0.486719,0.864614
1630678974065,-0.130601,0.487512,0.864614
1630678974075,-0.13054,0.48775599999999997,0.86376
1630678974084,-0.132248,0.48653599999999997,0.861381
1630678974094,-0.134749,0.48653599999999997,0.859856
1630678974103,-0.136884,0.485438,0.8583919999999999
1630678974113,-0.137616,0.48287599999999997,0.859124
1630678974123,-0.138775,0.484157,0.858148
1630678974132,-0.139568,0.486109,0.859124
1630678974142,-0.1403,0.486353,0.858453
1630678974151,-0.140178,0.487512,0.857721
1630678974161,-0.14097099999999999,0.48836599999999997,0.8547319999999999
1630678974171,-0.141764,0.490013,0.854244
1630678974180,-0.143411,0.49227,0.8525969999999999
1630678974190,-0.144143,0.493185,0.853268
1630678974199,-0.142984,0.4941,0.8538169999999999
1630678974209,-0.144875,0.494222,0.85339
1630678974219,-0.14579,0.493063,0.854549
1630678974228,-0.1464,0.49202599999999996,0.854976
1630678974238,-0.146949,0.49202599999999996,0.854366
1630678974247,-0.146766,0.49172099999999996,0.854305
1630678974257,-0.14701,0.48922,0.851926
1630678974267,-0.146766,0.490074,0.84851
1630678974276,-0.146766,0.493002,0.84851
1630678974286,-0.146339,0.493185,0.848815
1630678974295,-0.146339,0.49324599999999996,0.849303
1630678974305,-0.144509,0.494039,0.8522919999999999
1630678974315,-0.142435,0.49349,0.8547319999999999
1630678974324,-0.139263,0.492758,0.856623
1630678974334,-0.13908,0.490074,0.85522
1630678974343,-0.13786,0.491904,0.8568669999999999
1630678974353,-0.137006,0.490745,0.857965
1630678974363,-0.135359,0.487878,0.8577819999999999
1630678974372,-0.13511499999999999,0.486414,0.858331
1630678974382,-0.134322,0.487329,0.860283
1630678974391,-0.132736,0.487573,0.862723
1630678974401,-0.13047899999999998,0.487878,0.861076
1630678974411,-0.13078399999999998,0.487512,0.859795
1630678974420,-0.129991,0.487817,0.861503
1630678974430,-0.12932,0.488793,0.859246
1630678974439,-0.12871,0.488244,0.856806
1630678974449,-0.128466,0.48653599999999997,0.85644
1630678974459,-0.127551,0.484523,0.8556469999999999
1630678974468,-0.128161,0.482144,0.8559519999999999
1630678974478,-0.129381,0.479826,0.85827
1630678974487,-0.129442,0.47878899999999996,0.861259
1630678974497,-0.127368,0.47787399999999997,0.86437
1630678974507,-0.127429,0.479887,0.867054
1630678974516,-0.127246,0.480436,0.869067
1630678974526,-0.128466,0.48092399999999996,0.869067
1630678974535,-0.129503,0.481351,0.8662
1630678974545,-0.13078399999999998,0.479338,0.863516
1630678974555,-0.131394,0.477996,0.862235
1630678974564,-0.132675,0.478301,0.860588
1630678974574,-0.13237,0.476532,0.860649
1630678974583,-0.132797,0.477142,0.8614419999999999
1630678974593,-0.132553,0.478423,0.861625
1630678974603,-0.132797,0.478423,0.861503
1630678974612,-0.132187,0.47946,0.860039
1630678974622,-0.132431,0.48068,0.86193
1630678974631,-0.13176,0.480985,0.861869
1630678974641,-0.131516,0.48251,0.8629669999999999
1630678974651,-0.13237,0.482693,0.862784
1630678974660,-0.133224,0.483242,0.861625
1630678974670,-0.135542,0.482937,0.861686
1630678974679,-0.134261,0.48312,0.860649
1630678974689,-0.132492,0.48806099999999997,0.862174
1630678974699,-0.132126,0.490318,0.8629669999999999
1630678974708,-0.132614,0.490989,0.858636
1630678974718,-0.134566,0.489952,0.856074
1630678974727,-0.135237,0.49172099999999996,0.85644
1630678974737,-0.134383,0.491904,0.856989
1630678974747,-0.132126,0.492819,0.860161
1630678974756,-0.130906,0.492758,0.8614419999999999
1630678974766,-0.1281,0.496784,0.8605269999999999
1630678974775,-0.127856,0.500932,0.859063
1630678974785,-0.126331,0.503738,0.8580869999999999
1630678974795,-0.127002,0.50569,0.855891
1630678974804,-0.127612,0.507215,0.851865
1630678974814,-0.128161,0.50752,0.84607
1630678974823,-0.130357,0.510692,0.844362
1630678974833,-0.13078399999999998,0.508435,0.846375
1630678974843,-0.127429,0.503433,0.84668
1630678974852,-0.1281,0.503311,0.845094
1630678974862,-0.124623,0.507947,0.84729
1630678974871,-0.122366,0.508862,0.843447
1630678974881,-0.124135,0.505202,0.846375
1630678974891,-0.122915,0.500932,0.8535119999999999
1630678974900,-0.120353,0.501054,0.8562569999999999
1630678974910,-0.122,0.504958,0.85949
1630678974919,-0.12383,0.498919,0.85888
1630678974929,-0.122366,0.49837,0.859246
1630678974939,-0.123037,0.504348,0.856379
1630678974948,-0.12395199999999999,0.509899,0.855464
1630678974958,-0.12395199999999999,0.509899,0.85278
1630678974967,-0.124318,0.51118,0.8477169999999999
1630678974977,-0.127978,0.515023,0.843264
1630678974987,-0.13419999999999999,0.519537,0.838201
1630678974996,-0.138653,0.524722,0.832284
1630678975006,-0.142618,0.529968,0.8282579999999999
1630678975015,-0.14701,0.5383249999999999,0.832955
1630678975025,-0.148901,0.537166,0.809531
1630678975035,-0.150426,0.527711,0.794891
1630678975044,-0.149633,0.530456,0.800625
1630678975054,-0.14896199999999998,0.540216,0.806908
1630678975063,-0.149877,0.548268,0.812398
1630678975073,-0.155428,0.549671,0.807335
1630678975083,-0.16165,0.55083,0.7987339999999999
1630678975092,-0.166774,0.5480849999999999,0.790438
1630678975102,-0.165371,0.534543,0.7753099999999999
1630678975111,-0.158905,0.542717,0.786717
1630678975121,-0.15433,0.550525,0.802577
1630678975131,-0.162504,0.563762,0.803126
1630678975140,-0.170678,0.5663239999999999,0.79666
1630678975150,-0.173484,0.565287,0.791902
1630678975159,-0.177449,0.569618,0.795257
1630678975169,-0.177876,0.570411,0.797331
1630678975179,-0.176656,0.573095,0.796904
1630678975188,-0.175863,0.580598,0.79971
1630678975198,-0.173667,0.584441,0.804102
1630678975207,-0.16897,0.574498,0.806176
1630678975217,-0.165676,0.569008,0.8106289999999999
1630678975227,-0.162504,0.559065,0.820389
1630678975236,-0.160796,0.543876,0.831125
1630678975246,-0.16067399999999998,0.533018,0.841129
1630678975255,-0.16097899999999998,0.52338,0.848754
1630678975265,-0.15975899999999998,0.511424,0.851865
1630678975275,-0.157319,0.50203,0.8519869999999999
1630678975284,-0.157197,0.495747,0.854244
1630678975294,-0.155611,0.492209,0.860954
1630678975303,-0.151097,0.491172,0.865773
1630678975313,-0.147559,0.485255,0.869433
1630678975323,-0.147498,0.48122899999999996,0.874984
1630678975332,-0.14579,0.481046,0.878949
1630678975342,-0.148169,0.480375,0.880413
1630678975351,-0.150487,0.477996,0.881328
1630678975361,-0.149694,0.47756899999999997,0.872117
1630678975371,-0.149389,0.47482399999999997,0.865712
1630678975380,-0.145607,0.47116399999999997,0.87169
1630678975390,-0.144326,0.46860199999999996,0.874923
1630678975399,-0.148718,0.466894,0.874008
1630678975409,-0.150182,0.464271,0.867847
1630678975419,-0.149511,0.458293,0.857538
1630678975428,-0.148169,0.454877,0.862784
1630678975438,-0.142618,0.452864,0.875228
1630678975447,-0.141337,0.447191,0.878217
1630678975457,-0.142862,0.443226,0.872117
1630678975467,-0.142252,0.444324,0.87291
1630678975476,-0.137128,0.443714,0.878949
1630678975486,-0.134261,0.441884,0.878705
1630678975495,-0.136274,0.442677,0.872544
1630678975505,-0.138165,0.441884,0.8726659999999999
1630678975515,-0.136762,0.434991,0.878095
1630678975524,-0.136274,0.425658,0.8836459999999999
1630678975534,-0.134932,0.421449,0.888648
1630678975543,-0.136701,0.420412,0.89182
1630678975553,-0.136823,0.41687399999999997,0.894443
1630678975563,-0.137006,0.409981,0.894626
1630678975572,-0.136274,0.407358,0.899567
1630678975582,-0.136396,0.409981,0.895846
1630678975591,-0.137189,0.412238,0.894992
1630678975601,-0.137738,0.41541,0.893772
1630678975611,-0.139568,0.416996,0.890844
1630678975620,-0.139385,0.418521,0.892247
1630678975630,-0.140239,0.422608,0.892918
1630678975639,-0.14036099999999999,0.423645,0.893345
1630678975649,-0.141093,0.425719,0.892796
1630678975659,-0.142008,0.427488,0.891576
1630678975668,-0.142252,0.429989,0.889746
1630678975678,-0.143045,0.434503,0.8866959999999999
1630678975687,-0.143533,0.437004,0.883158
1630678975697,-0.144326,0.435296,0.874679
1630678975707,-0.145729,0.437126,0.869372
1630678975716,-0.145729,0.436211,0.868091
1630678975726,-0.145485,0.435296,0.868884
1630678975735,-0.144204,0.436699,0.869128
1630678975745,-0.141398,0.440969,0.869738
1630678975755,-0.14036099999999999,0.443714,0.868274
1630678975764,-0.137982,0.440054,0.868518
1630678975774,-0.137006,0.44090799999999997,0.872605
1630678975783,-0.13694499999999998,0.439749,0.8781559999999999
1630678975793,-0.135664,0.438224,0.885232
1630678975803,-0.133834,0.436394,0.893528
1630678975812,-0.132248,0.432063,0.897188
1630678975822,-0.131394,0.43005,0.900543
1630678975831,-0.130845,0.428403,0.902312
1630678975841,-0.130967,0.429684,0.901702
1630678975851,-0.13017399999999998,0.42944,0.899506
1630678975860,-0.130296,0.433344,0.897676
1630678975870,-0.131272,0.435906,0.896639
1630678975879,-0.13237,0.437309,0.8936499999999999
1630678975889,-0.134688,0.43737,0.891698
1630678975899,-0.14036099999999999,0.437004,0.888709
1630678975908,-0.142679,0.436394,0.885842
1630678975918,-0.142252,0.436699,0.885232
1630678975927,-0.144204,0.436699,0.886452
1630678975937,-0.144448,0.438712,0.889929
1630678975947,-0.144753,0.44060299999999997,0.8885259999999999
1630678975956,-0.145973,0.44060299999999997,0.885232
1630678975966,-0.14774199999999998,0.44151799999999997,0.880962
1630678975975,-0.146888,0.43981,0.879742
1630678975985,-0.147193,0.437736,0.880047
1630678975995,-0.14823,0.438102,0.880962
1630678976004,-0.148779,0.436089,0.882975
1630678976014,-0.14823,0.433283,0.881877
1630678976023,-0.14835199999999998,0.431514,0.882304
1630678976033,-0.14945,0.42950099999999997,0.879193
1630678976043,-0.14945,0.430843,0.87779
1630678976052,-0.151158,0.430599,0.876692
1630678976062,-0.151768,0.430782,0.877485
1630678976071,-0.150914,0.429989,0.880718
1630678976081,-0.15067,0.430172,0.882914
1630678976091,-0.151951,0.428342,0.884195
1630678976100,-0.149755,0.429379,0.8833409999999999
1630678976110,-0.148169,0.43249,0.884439
1630678976119,-0.148413,0.434686,0.884744
1630678976129,-0.147681,0.435601,0.883158
1630678976139,-0.149694,0.434442,0.879864
1630678976148,-0.150304,0.431575,0.878705
1630678976158,-0.149694,0.430172,0.878827
1630678976167,-0.149084,0.42822,0.8799859999999999
1630678976177,-0.149694,0.426512,0.8796809999999999
1630678976187,-0.149511,0.427488,0.8821209999999999
1630678976196,-0.150853,0.43041599999999997,0.884805
1630678976206,-0.149999,0.429135,0.885232
1630678976215,-0.149084,0.430538,0.884073
1630678976225,-0.149511,0.433283,0.881755
1630678976235,-0.14926699999999998,0.434503,0.885232
1630678976244,-0.14835199999999998,0.43541799999999997,0.8863909999999999
1630678976254,-0.147559,0.435662,0.884744
1630678976263,-0.14713199999999999,0.436516,0.8818159999999999
1630678976273,-0.14743699999999998,0.43737,0.881145
1630678976283,-0.14652199999999999,0.43493,0.8824259999999999
1630678976292,-0.14518,0.434686,0.887672
1630678976302,-0.144814,0.433771,0.890356
1630678976311,-0.142862,0.4331,0.892186
1630678976321,-0.141947,0.43194099999999996,0.893223
1630678976331,-0.140849,0.432307,0.8948699999999999
1630678976340,-0.14005599999999999,0.433283,0.894626
1630678976350,-0.139812,0.434869,0.892857
1630678976359,-0.139812,0.43249,0.890966
1630678976369,-0.14005599999999999,0.432124,0.888343
1630678976379,-0.139995,0.433954,0.8860859999999999
1630678976388,-0.14127599999999998,0.435662,0.88389
1630678976398,-0.141337,0.440847,0.88511
1630678976407,-0.139995,0.44347,0.8854759999999999
1630678976417,-0.1403,0.444202,0.883219
1630678976427,-0.14249599999999998,0.445727,0.879742
1630678976436,-0.142923,0.44743499999999997,0.877058
1630678976446,-0.143411,0.448716,0.87535
1630678976455,-0.14396,0.44956999999999997,0.873947
1630678976465,-0.145302,0.450302,0.8726659999999999
1630678976475,-0.144936,0.45139999999999997,0.8708359999999999
1630678976484,-0.145424,0.452498,0.86742
1630678976494,-0.147376,0.45536499999999996,0.866139
1630678976503,-0.14774199999999998,0.456341,0.8644919999999999
1630678976513,-0.14896199999999998,0.457317,0.863821
1630678976523,-0.149633,0.458659,0.863455
1630678976532,-0.149145,0.460306,0.863516
1630678976542,-0.149023,0.463234,0.861686
1630678976551,-0.14865699999999998,0.46177,0.8586969999999999
1630678976561,-0.149572,0.45811,0.856989
1630678976571,-0.151219,0.456951,0.857965
1630678976580,-0.150548,0.453657,0.860771
1630678976590,-0.149633,0.453413,0.863638
1630678976599,-0.14823,0.449509,0.868213
1630678976609,-0.14701,0.447557,0.874008
1630678976619,-0.146888,0.447252,0.8778509999999999
1630678976628,-0.146034,0.442982,0.882487
1630678976638,-0.145607,0.4392,0.88511
1630678976647,-0.14457,0.437492,0.887062
1630678976657,-0.143533,0.433588,0.891088
1630678976667,-0.14274,0.430904,0.891088
1630678976676,-0.14097099999999999,0.431819,0.891698
1630678976686,-0.141032,0.4331,0.896151
1630678976695,-0.13847,0.435662,0.895846
1630678976705,-0.138287,0.436455,0.895968
1630678976715,-0.137433,0.43493,0.894992
1630678976724,-0.137555,0.434442,0.891881
1630678976734,-0.138043,0.435967,0.891759
1630678976743,-0.139995,0.432673,0.893528
1630678976753,-0.142984,0.428159,0.892857
1630678976763,-0.142252,0.425719,0.892186
1630678976772,-0.141398,0.42797599999999997,0.891942
1630678976782,-0.14152,0.43163599999999996,0.893162
1630678976791,-0.142313,0.435052,0.892674
1630678976801,-0.142923,0.438834,0.890295
1630678976811,-0.144692,0.44090799999999997,0.886452
1630678976820,-0.145424,0.440176,0.881328
1630678976830,-0.14896199999999998,0.44273799999999996,0.877729
1630678976839,-0.14945,0.445666,0.87596
1630678976849,-0.151463,0.449997,0.87291
1630678976859,-0.152805,0.458049,0.8702259999999999
1630678976868,-0.154025,0.451217,0.863699
1630678976878,-0.153354,0.449814,0.861503
1630678976887,-0.151707,0.45231499999999997,0.863699
1630678976897,-0.150365,0.451888,0.864614
1630678976907,-0.150487,0.455182,0.866627
1630678976916,-0.150304,0.459269,0.870287
1630678976926,-0.14823,0.464759,0.8726659999999999
1630678976935,-0.14945,0.465308,0.867542
1630678976945,-0.148779,0.458171,0.866444
1630678976955,-0.144814,0.460794,0.867847
1630678976964,-0.141215,0.4575,0.856623
1630678976974,-0.139995,0.448533,0.871934
1630678976983,-0.136396,0.463234,0.894077
1630678976993,-0.138104,0.452498,0.873337
1630678977003,-0.142984,0.452742,0.860466
1630678977012,-0.137738,0.45017999999999997,0.86315
1630678977022,-0.137982,0.447313,0.869128
1630678977031,-0.138531,0.444751,0.875533
1630678977041,-0.126392,0.446398,0.875777
1630678977051,-0.128893,0.450851,0.878583
1630678977060,-0.136579,0.453474,0.883707
1630678977070,-0.12627,0.454999,0.884378
1630678977079,-0.126392,0.43999299999999997,0.876875
1630678977089,-0.129991,0.461465,0.9018849999999999
1630678977099,-0.126331,0.45536499999999996,0.8960899999999999
1630678977108,-0.134139,0.45292499999999997,0.8784609999999999
1630678977118,-0.135847,0.455121,0.87718
1630678977127,-0.135176,0.459391,0.87413
1630678977137,-0.135542,0.463295,0.871873
1630678977147,-0.136518,0.46311199999999997,0.869555
1630678977156,-0.138104,0.4636,0.866871
1630678977166,-0.137982,0.461648,0.864736
1630678977175,-0.139324,0.464088,0.865285
1630678977185,-0.139446,0.465369,0.864858
1630678977195,-0.140544,0.46768699999999996,0.863638
1630678977204,-0.142923,0.467626,0.861564
1630678977214,-0.143167,0.467443,0.859551
1630678977223,-0.143228,0.466101,0.8596119999999999
1630678977233,-0.145363,0.470737,0.860466
1630678977243,-0.146034,0.474336,0.862784
1630678977252,-0.151768,0.482815,0.864553
1630678977262,-0.145607,0.475007,0.852475
1630678977271,-0.149938,0.472201,0.85705
1630678977281,-0.150487,0.46799199999999996,0.86376
1630678977291,-0.14926699999999998,0.46494199999999997,0.861259
1630678977300,-0.15311,0.45627999999999996,0.85583
1630678977310,-0.141703,0.432734,0.8507669999999999
1630678977319,-0.145363,0.46890699999999996,0.906338
1630678977329,-0.135908,0.446276,0.890966
1630678977339,-0.15372,0.453474,0.8571719999999999
1630678977348,-0.148779,0.454389,0.868091
1630678977358,-0.144326,0.457439,0.876448
1630678977367,-0.144631,0.458171,0.878705
1630678977377,-0.146156,0.453352,0.877973
1630678977387,-0.14579,0.453108,0.8787659999999999
1630678977396,-0.14335,0.44987499999999997,0.883402
1630678977406,-0.13969,0.446642,0.887733
1630678977415,-0.138653,0.445178,0.891698
1630678977425,-0.137372,0.442799,0.892308
1630678977435,-0.136274,0.441762,0.893894
1630678977444,-0.133712,0.44182299999999997,0.895541
1630678977454,-0.13298,0.443165,0.897554
1630678977463,-0.130357,0.442799,0.8976149999999999
1630678977473,-0.129625,0.442372,0.8954799999999999
1630678977483,-0.128222,0.447191,0.8954799999999999
1630678977492,-0.127246,0.450729,0.893406
1630678977502,-0.122671,0.45017999999999997,0.884317
1630678977511,-0.126453,0.45231499999999997,0.879925
1630678977521,-0.125172,0.453596,0.87718
1630678977531,-0.124806,0.449021,0.869189
1630678977540,-0.124135,0.44773999999999997,0.865956
1630678977550,-0.124074,0.44712999999999997,0.865773
1630678977559,-0.12254899999999999,0.454999,0.866383
1630678977569,-0.120902,0.463173,0.866688
1630678977579,-0.117852,0.46433199999999997,0.870592
1630678977588,-0.115107,0.465979,0.871812
1630678977598,-0.11608299999999999,0.468419,0.869982
1630678977607,-0.114802,0.469029,0.867969
1630678977617,-0.113094,0.465369,0.867969
1630678977627,-0.11114199999999999,0.460794,0.867786
1630678977636,-0.110593,0.45933,0.868762
1630678977646,-0.110288,0.460184,0.866688
1630678977655,-0.108641,0.461343,0.869128
1630678977665,-0.10729899999999999,0.462563,0.871934
1630678977675,-0.106872,0.464454,0.874557
1630678977684,-0.10931199999999999,0.466711,0.873642
1630678977694,-0.104188,0.463844,0.857233
1630678977703,-0.10187,0.458354,0.860954
1630678977713,-0.10376099999999999,0.48000899999999996,0.892979
1630678977723,-0.098271,0.46616199999999997,0.879864
1630678977732,-0.105469,0.465918,0.865163
1630678977742,-0.10284599999999999,0.46738199999999996,0.875167
1630678977751,-0.09820999999999999,0.470066,0.8784609999999999
1630678977761,-0.097722,0.47146899999999997,0.874862
1630678977771,-0.10004,0.47177399999999997,0.8723
1630678977780,-0.097844,0.47214,0.872788
1630678977790,-0.09991799999999999,0.471286,0.8708359999999999
1630678977799,-0.101199,0.467565,0.870592
1630678977809,-0.10126,0.46860199999999996,0.8726659999999999
1630678977819,-0.100406,0.469822,0.8723
1630678977828,-0.09820999999999999,0.465674,0.871934
1630678977838,-0.09528199999999999,0.464576,0.873764
1630678977847,-0.097417,0.468114,0.8726659999999999
1630678977857,-0.096563,0.467809,0.871568
1630678977867,-0.09729499999999999,0.46726,0.870287
1630678977876,-0.09729499999999999,0.472628,0.8735809999999999
1630678977886,-0.096624,0.473543,0.8748009999999999
1630678977895,-0.095648,0.47299399999999997,0.873459
1630678977905,-0.097722,0.47268899999999997,0.873154
1630678977915,-0.10065,0.473177,0.8708359999999999
1630678977924,-0.103822,0.47085899999999997,0.868823
1630678977934,-0.095099,0.46543,0.869677
1630678977943,-0.098942,0.46585699999999997,0.871202
1630678977953,-0.099125,0.464149,0.8714459999999999
1630678977963,-0.100467,0.469761,0.878339
1630678977972,-0.10065,0.47085899999999997,0.876692
1630678977982,-0.101809,0.46848,0.867847
1630678977991,-0.10174799999999999,0.46524699999999997,0.865285
1630678978001,-0.100894,0.466528,0.867176
1630678978011,-0.101382,0.470066,0.869799
1630678978020,-0.101931,0.470554,0.869494
1630678978030,-0.101199,0.46921199999999996,0.871202
1630678978039,-0.102602,0.466284,0.8723
1630678978049,-0.102297,0.463234,0.8744959999999999
1630678978059,-0.102541,0.464271,0.875838
1630678978068,-0.103334,0.464576,0.876387
1630678978078,-0.101016,0.46555199999999997,0.87657
1630678978087,-0.100894,0.46646699999999996,0.873825
1630678978097,-0.10144299999999999,0.466223,0.872544
1630678978107,-0.10205299999999999,0.466711,0.870897
1630678978116,-0.10174799999999999,0.468846,0.871324
1630678978126,-0.097417,0.465186,0.8720559999999999
1630678978135,-0.098149,0.458598,0.873459
1630678978145,-0.096868,0.460794,0.876814
1630678978155,-0.09820999999999999,0.463844,0.8757159999999999
1630678978164,-0.09759999999999999,0.46555199999999997,0.874008
1630678978174,-0.09638,0.468358,0.874313
1630678978183,-0.09638,0.466345,0.874435
1630678978193,-0.095404,0.46543,0.874923
1630678978203,-0.095099,0.462075,0.8775459999999999
1630678978212,-0.09589199999999999,0.459818,0.8778509999999999
1630678978222,-0.09577,0.45811,0.879315
1630678978231,-0.093818,0.454877,0.881389
1630678978241,-0.094184,0.455121,0.882792
1630678978251,-0.093513,0.457439,0.88572
1630678978260,-0.091622,0.456158,0.8876109999999999
1630678978270,-0.090524,0.453352,0.888892
1630678978279,-0.092842,0.457195,0.889258
1630678978289,-0.092171,0.455792,0.884744
1630678978299,-0.092537,0.44347,0.869494
1630678978308,-0.085705,0.425597,0.88267
1630678978318,-0.090219,0.46036699999999997,0.917928
1630678978327,-0.089365,0.43633299999999997,0.886757
1630678978337,-0.100284,0.440481,0.877912
1630678978347,-0.090036,0.43968799999999997,0.897676
1630678978356,-0.08662,0.44347,0.903654
1630678978366,-0.08881599999999999,0.442372,0.899689
1630678978375,-0.090341,0.443226,0.897981
1630678978385,-0.08662,0.447313,0.901397
1630678978395,-0.08649799999999999,0.44652,0.902251
1630678978404,-0.087291,0.443531,0.905179
1630678978414,-0.08601,0.439932,0.905972
1630678978423,-0.087657,0.446093,0.908473
1630678978433,-0.086986,0.451522,0.910486
1630678978443,-0.085461,0.450119,0.9058499999999999
1630678978452,-0.086132,0.450241,0.9000549999999999
1630678978462,-0.085766,0.452864,0.897493
1630678978471,-0.086559,0.450363,0.891332
1630678978481,-0.086742,0.446703,0.884134
1630678978491,-0.083387,0.44456799999999996,0.880047
1630678978500,-0.082106,0.448472,0.875533
1630678978510,-0.081496,0.458415,0.870714
1630678978519,-0.078934,0.466345,0.866383
1630678978529,-0.074908,0.47397,0.8617469999999999
1630678978539,-0.074359,0.48318099999999997,0.859734
1630678978548,-0.073505,0.486658,0.857355
1630678978558,-0.071187,0.488854,0.854976
1630678978567,-0.071431,0.492392,0.853085
1630678978577,-0.071919,0.495564,0.851316
1630678978587,-0.07033299999999999,0.49654,0.85095
1630678978596,-0.06801499999999999,0.49519799999999997,0.851316
1630678978606,-0.067771,0.494283,0.850584
1630678978615,-0.065209,0.501725,0.8495469999999999
1630678978625,-0.063196,0.50935,0.850279
1630678978635,-0.063318,0.517707,0.847046
1630678978644,-0.06478199999999999,0.525515,0.838506
1630678978654,-0.068076,0.536617,0.830576
1630678978663,-0.069418,0.541131,0.824659
1630678978673,-0.070516,0.538203,0.818376
1630678978683,-0.069784,0.530395,0.818376
1630678978692,-0.06770999999999999,0.526125,0.822341
1630678978702,-0.066612,0.523563,0.829234
1630678978711,-0.067161,0.522587,0.833321
1630678978721,-0.067832,0.5197809999999999,0.838384
1630678978731,-0.065575,0.510692,0.843081
1630678978740,-0.065575,0.506666,0.848205
1630678978750,-0.066673,0.503372,0.850584
1630678978759,-0.067832,0.49672299999999997,0.852475
1630678978769,-0.068808,0.493368,0.856135
1630678978779,-0.068259,0.491172,0.862174
1630678978788,-0.068747,0.486292,0.865773
1630678978798,-0.068503,0.484828,0.871812
1630678978807,-0.06893,0.486292,0.877058
1630678978817,-0.069357,0.483974,0.878278
1630678978827,-0.07002799999999999,0.480253,0.878583
1630678978836,-0.071919,0.476593,0.8812059999999999
1630678978846,-0.072285,0.474763,0.881938
1630678978855,-0.07259,0.474946,0.879925
1630678978865,-0.072956,0.474763,0.879315
1630678978875,-0.072834,0.4758,0.879925
1630678978884,-0.075457,0.477752,0.8757159999999999
1630678978894,-0.07649399999999999,0.477752,0.871934
1630678978903,-0.077958,0.480436,0.867603
1630678978913,-0.078934,0.48000899999999996,0.86498
1630678978923,-0.08052,0.480436,0.863394
1630678978932,-0.080764,0.484218,0.863333
1630678978942,-0.080886,0.48623099999999997,0.8638819999999999
1630678978951,-0.081069,0.48653599999999997,0.865712
1630678978961,-0.081374,0.485194,0.866444
1630678978971,-0.082472,0.48531599999999997,0.868884
1630678978980,-0.082533,0.48348599999999997,0.8702259999999999
1630678978990,-0.083448,0.48251,0.8702259999999999
1630678978999,-0.086071,0.48287599999999997,0.868762
1630678979009,-0.085156,0.482937,0.867237
1630678979019,-0.086559,0.481961,0.867298
1630678979028,-0.08680299999999999,0.482327,0.869677
1630678979038,-0.085339,0.482449,0.869555
1630678979047,-0.087657,0.482998,0.866566
1630678979057,-0.088572,0.483608,0.866688
1630678979067,-0.08973099999999999,0.48562099999999997,0.868701
1630678979076,-0.088877,0.485194,0.869555
1630678979086,-0.090585,0.482449,0.867908
1630678979095,-0.091927,0.47763,0.86742
1630678979105,-0.093452,0.47665399999999997,0.866871
1630678979115,-0.093269,0.477142,0.86864
1630678979124,-0.093208,0.47702,0.870775
1630678979134,-0.093025,0.477996,0.8732759999999999
1630678979143,-0.09333,0.481046,0.873642
1630678979153,-0.093818,0.481107,0.8720559999999999
1630678979163,-0.095038,0.48061899999999996,0.869494
1630678979172,-0.096258,0.47946,0.86864
1630678979182,-0.09638,0.481473,0.868335
1630678979191,-0.097478,0.48129,0.86864
1630678979201,-0.098027,0.480863,0.866017
1630678979211,-0.099369,0.481534,0.864126
1630678979220,-0.099369,0.482632,0.863638
1630678979230,-0.100162,0.484645,0.863821
1630678979239,-0.099613,0.482632,0.86376
1630678979249,-0.10022299999999999,0.483303,0.864858
1630678979259,-0.100772,0.483425,0.864065
1630678979268,-0.101016,0.482327,0.8647969999999999
1630678979278,-0.10052799999999999,0.4819,0.864675
1630678979287,-0.101626,0.47939899999999996,0.864004
1630678979297,-0.101382,0.48092399999999996,0.86193
1630678979307,-0.101809,0.484767,0.859856
1630678979316,-0.10345599999999999,0.486048,0.859124
1630678979326,-0.103517,0.48623099999999997,0.85766
1630678979335,-0.10437099999999999,0.483425,0.856989
1630678979345,-0.10492,0.479277,0.8562569999999999
1630678979355,-0.10553,0.47512899999999997,0.858331
1630678979364,-0.10406599999999999,0.47085899999999997,0.860344
1630678979374,-0.103273,0.472323,0.859978
1630678979383,-0.103578,0.472201,0.861015
1630678979393,-0.104798,0.474885,0.860283
1630678979403,-0.106811,0.475617,0.859734
1630678979412,-0.101382,0.484035,0.8608319999999999
1630678979422,-0.102907,0.49471,0.862601
1630678979431,-0.105164,0.491599,0.862845
1630678979441,-0.107482,0.486658,0.862174
1630678979451,-0.107787,0.47360399999999997,0.866139
1630678979460,-0.110105,0.459879,0.8714459999999999
1630678979470,-0.110349,0.447618,0.879132
1630678979479,-0.106933,0.443592,0.8860859999999999
1630678979489,-0.106506,0.448106,0.888099
1630678979499,-0.108458,0.449021,0.889624
1630678979508,-0.11114199999999999,0.449814,0.891637
1630678979518,-0.11254499999999999,0.44865499999999997,0.892369
1630678979527,-0.11163,0.44273799999999996,0.895541
1630678979537,-0.111996,0.440176,0.896578
1630678979547,-0.11406999999999999,0.440847,0.8954799999999999
1630678979556,-0.11468,0.44334799999999996,0.896456
1630678979566,-0.115107,0.445056,0.896639
1630678979575,-0.116449,0.44773999999999997,0.896151
1630678979585,-0.117181,0.449814,0.8957849999999999
1630678979595,-0.118767,0.45200999999999997,0.893894
1630678979604,-0.119987,0.450851,0.890173
1630678979614,-0.123708,0.451278,0.885842
1630678979623,-0.127307,0.454206,0.880779
1630678979633,-0.12932,0.456951,0.876387
1630678979643,-0.131943,0.458476,0.8744959999999999
1630678979652,-0.133041,0.46067199999999997,0.872117
1630678979662,-0.134078,0.465186,0.870165
1630678979671,-0.13511499999999999,0.468968,0.866688
1630678979681,-0.137372,0.471347,0.862235
1630678979691,-0.138714,0.47085899999999997,0.8562569999999999
1630678979700,-0.141154,0.475007,0.8510719999999999
1630678979710,-0.142374,0.479338,0.848083
1630678979719,-0.14335,0.483974,0.847839
1630678979729,-0.144814,0.492087,0.847778
1630678979739,-0.145912,0.495076,0.847168
1630678979748,-0.148291,0.49324599999999996,0.842715
1630678979758,-0.147803,0.489525,0.840275
1630678979767,-0.14701,0.48861,0.837286
1630678979777,-0.145912,0.487939,0.8340529999999999
1630678979787,-0.147498,0.488244,0.8361879999999999
1630678979796,-0.14713199999999999,0.486353,0.843508
1630678979806,-0.143899,0.489098,0.848388
1630678979815,-0.142313,0.490013,0.850706
1630678979825,-0.138775,0.488244,0.853634
1630678979835,-0.139568,0.488427,0.859246
1630678979844,-0.14005599999999999,0.480863,0.866566
1630678979854,-0.139568,0.46890699999999996,0.87474
1630678979863,-0.138958,0.455487,0.884134
1630678979873,-0.136457,0.44652,0.893528
1630678979883,-0.134261,0.442006,0.900787
1630678979892,-0.131821,0.438956,0.905911
1630678979902,-0.130906,0.438895,0.910852
1630678979911,-0.12956399999999998,0.440725,0.910059
1630678979921,-0.128222,0.440664,0.9067649999999999
1630678979931,-0.128161,0.439505,0.903044
1630678979940,-0.129076,0.440847,0.902068
1630678979950,-0.12871,0.43968799999999997,0.902434
1630678979959,-0.129686,0.43816299999999997,0.901397
1630678979969,-0.130235,0.435967,0.899384
1630678979979,-0.129442,0.437614,0.8985299999999999
1630678979988,-0.127856,0.435906,0.8973099999999999
1630678979998,-0.127612,0.43602799999999997,0.8960899999999999
1630678980007,-0.127429,0.43694299999999997,0.893101
1630678980017,-0.128771,0.438529,0.8906
1630678980027,-0.13017399999999998,0.439871,0.889197
1630678980036,-0.130296,0.441579,0.888404
1630678980046,-0.130357,0.445666,0.889502
1630678980055,-0.128161,0.448594,0.887794
1630678980065,-0.12254899999999999,0.45017999999999997,0.888099
1630678980075,-0.12023099999999999,0.44804499999999997,0.888404
1630678980084,-0.120902,0.44469,0.886513
1630678980094,-0.118035,0.43511299999999997,0.8833409999999999
1630678980103,-0.11870599999999999,0.43224599999999996,0.880657
1630678980113,-0.121146,0.434503,0.880962
1630678980123,-0.118889,0.432063,0.879559
1630678980132,-0.114619,0.43541799999999997,0.8812059999999999
1630678980142,-0.110349,0.437919,0.881694
1630678980151,-0.108336,0.440542,0.8818159999999999
1630678980161,-0.105408,0.442067,0.884378
1630678980171,-0.099674,0.44243299999999997,0.888953
1630678980180,-0.098454,0.438651,0.889258
1630678980190,-0.094245,0.439017,0.888587
1630678980199,-0.094855,0.434198,0.8854759999999999
1630678980209,-0.09577,0.437431,0.884622
1630678980219,-0.093025,0.438041,0.888343
1630678980228,-0.090463,0.442555,0.886147
1630678980238,-0.09089,0.447069,0.884073
1630678980247,-0.090219,0.451522,0.883402
1630678980257,-0.08601,0.454938,0.881389
1630678980267,-0.08418,0.45872,0.879498
1630678980276,-0.082228,0.462014,0.8769359999999999
1630678980286,-0.082289,0.467016,0.87291
1630678980295,-0.082838,0.472506,0.871934
1630678980305,-0.08204499999999999,0.477203,0.870104
1630678980315,-0.080886,0.483608,0.8702259999999999
1630678980324,-0.077653,0.487512,0.869006
1630678980334,-0.07686,0.493612,0.865407
1630678980343,-0.076067,0.49519799999999997,0.86315
1630678980353,-0.07448099999999999,0.496784,0.858819
1630678980363,-0.075274,0.49824799999999997,0.854488
1630678980372,-0.075213,0.49898,0.851926
1630678980382,-0.074359,0.50081,0.848998
1630678980391,-0.076067,0.502274,0.848266
1630678980401,-0.077165,0.505324,0.850279
1630678980411,-0.075396,0.508923,0.848449
1630678980420,-0.075884,0.506727,0.849425
1630678980430,-0.075091,0.50752,0.850096
1630678980439,-0.075518,0.513254,0.8504619999999999
1630678980449,-0.075579,0.517524,0.850889
1630678980459,-0.07686,0.529053,0.857294
1630678980468,-0.082716,0.543937,0.851316
1630678980478,-0.075213,0.528626,0.829417
1630678980487,-0.076006,0.526491,0.832284
1630678980497,-0.07326099999999999,0.527284,0.845155
1630678980507,-0.07387099999999999,0.528809,0.847046
1630678980516,-0.074786,0.527101,0.84424
1630678980526,-0.07356599999999999,0.521794,0.830332
1630678980535,-0.070821,0.508008,0.83692
1630678980545,-0.080886,0.544608,0.871202
1630678980555,-0.077592,0.518378,0.837957
1630678980564,-0.083448,0.5197809999999999,0.822402
1630678980574,-0.077592,0.52704,0.834907
1630678980583,-0.07448099999999999,0.53192,0.838811
1630678980593,-0.073505,0.530334,0.840214
1630678980603,-0.076921,0.529968,0.8374079999999999
1630678980612,-0.072956,0.52765,0.83631
1630678980622,-0.075396,0.524173,0.836066
1630678980631,-0.075518,0.521794,0.8367979999999999
1630678980641,-0.074298,0.520818,0.8380179999999999
1630678980651,-0.071797,0.519903,0.83936
1630678980660,-0.075945,0.522282,0.841312
1630678980670,-0.07155299999999999,0.520147,0.843325
1630678980679,-0.07326099999999999,0.520269,0.84485
1630678980689,-0.070211,0.519415,0.846558
1630678980699,-0.071309,0.521428,0.847595
1630678980708,-0.069784,0.523868,0.8492419999999999
1630678980718,-0.07033299999999999,0.524722,0.846314
1630678980727,-0.072834,0.525088,0.8418
1630678980737,-0.073322,0.5213059999999999,0.839421
1630678980747,-0.072895,0.5188659999999999,0.8395429999999999
1630678980756,-0.07015,0.515755,0.84058
1630678980766,-0.07063799999999999,0.517768,0.844057
1630678980775,-0.070699,0.521062,0.845887
1630678980785,-0.072407,0.5216109999999999,0.843447
1630678980795,-0.071919,0.521672,0.844545
1630678980804,-0.072224,0.519598,0.841495
1630678980814,-0.073139,0.5194759999999999,0.843386
1630678980823,-0.071797,0.521245,0.845033
1630678980833,-0.070394,0.522709,0.848754
1630678980843,-0.069235,0.523197,0.849791
1630678980852,-0.069357,0.521428,0.849913
1630678980862,-0.069723,0.522343,0.850706
1630678980871,-0.071004,0.520452,0.851316
1630678980881,-0.071919,0.518378,0.850584
1630678980891,-0.071126,0.516243,0.851011
1630678980900,-0.071126,0.517158,0.849486
1630678980910,-0.070211,0.51972,0.848571
1630678980919,-0.071492,0.520818,0.8479
1630678980929,-0.0732,0.522404,0.845887
1630678980939,-0.073444,0.523075,0.84485
1630678980948,-0.072895,0.521428,0.845399
1630678980958,-0.075396,0.5222209999999999,0.844423
1630678980967,-0.07649399999999999,0.52277,0.845277
1630678980977,-0.07679899999999999,0.5219159999999999,0.846863
1630678980987,-0.076555,0.520757,0.8480219999999999
1630678980996,-0.078385,0.5197809999999999,0.8492419999999999
1630678981006,-0.07808,0.519293,0.84912
1630678981015,-0.078263,0.5197809999999999,0.850279
1630678981025,-0.078568,0.5206959999999999,0.85034
1630678981035,-0.080276,0.520879,0.849669
1630678981044,-0.08174,0.521062,0.848693
1630678981054,-0.08295999999999999,0.519415,0.8461919999999999
1630678981063,-0.083631,0.520452,0.84607
1630678981073,-0.084485,0.519232,0.844972
1630678981083,-0.08588799999999999,0.5216109999999999,0.845033
1630678981092,-0.085461,0.5213059999999999,0.845399
1630678981102,-0.085339,0.521855,0.845155
1630678981111,-0.08649799999999999,0.521367,0.845704
1630678981121,-0.086925,0.521672,0.846314
1630678981131,-0.086254,0.521672,0.8468019999999999
1630678981140,-0.086437,0.520208,0.8486319999999999
1630678981150,-0.085827,0.518805,0.8479
1630678981159,-0.086071,0.5197809999999999,0.847961
1630678981169,-0.084363,0.519293,0.850523
1630678981179,-0.084424,0.519537,0.847839
1630678981188,-0.08479,0.519659,0.845155
1630678981198,-0.085522,0.518378,0.843996
1630678981207,-0.085034,0.518805,0.844118
1630678981217,-0.084241,0.514962,0.845216
1630678981227,-0.085522,0.510936,0.845582
1630678981236,-0.086254,0.511485,0.84668
1630678981246,-0.085949,0.512888,0.848266
1630678981255,-0.085522,0.512705,0.851316
1630678981265,-0.08356999999999999,0.514535,0.854976
1630678981275,-0.084363,0.514779,0.854366
1630678981284,-0.085522,0.513254,0.853695
1630678981294,-0.085705,0.510082,0.852536
1630678981303,-0.0854,0.509228,0.8507669999999999
1630678981313,-0.085034,0.510326,0.850584
1630678981323,-0.085034,0.510692,0.852231
1630678981332,-0.08479,0.510814,0.852658
1630678981342,-0.085156,0.511668,0.85278
1630678981351,-0.085522,0.512522,0.851926
1630678981361,-0.08588799999999999,0.511729,0.85034
1630678981371,-0.086254,0.513132,0.850279
1630678981380,-0.086681,0.5149009999999999,0.84973
1630678981390,-0.08649799999999999,0.513803,0.850889
1630678981399,-0.085827,0.515023,0.850401
1630678981409,-0.086254,0.5145959999999999,0.848205
1630678981419,-0.086925,0.513864,0.847534
1630678981428,-0.088145,0.51423,0.843447
1630678981438,-0.087047,0.514474,0.842288
1630678981447,-0.087291,0.5149009999999999,0.844057
1630678981457,-0.087352,0.5161209999999999,0.84546
1630678981467,-0.087352,0.517402,0.845887
1630678981476,-0.088145,0.51667,0.846741
1630678981486,-0.08820599999999999,0.515145,0.84668
1630678981495,-0.088694,0.515389,0.847656
1630678981505,-0.089243,0.5152059999999999,0.848449
1630678981515,-0.08851099999999999,0.518622,0.8489369999999999
1630678981524,-0.089548,0.52033,0.846619
1630678981534,-0.090585,0.5219159999999999,0.844606
1630678981543,-0.092476,0.521794,0.841312
1630678981553,-0.09272,0.522953,0.840946
1630678981563,-0.092964,0.5246,0.840641
1630678981572,-0.093696,0.525698,0.8404579999999999
1630678981582,-0.094794,0.527772,0.837347
1630678981591,-0.096807,0.528504,0.8361879999999999
1630678981601,-0.098027,0.526674,0.837774
1630678981611,-0.098027,0.525942,0.8371029999999999
1630678981620,-0.099308,0.520757,0.8343579999999999
1630678981630,-0.10052799999999999,0.515633,0.834419
1630678981639,-0.09851499999999999,0.504592,0.8343579999999999
1630678981649,-0.10022299999999999,0.496479,0.8337479999999999
1630678981659,-0.09943,0.495686,0.832467
1630678981668,-0.099308,0.496967,0.835944
1630678981678,-0.099552,0.49519799999999997,0.839604
1630678981687,-0.100101,0.49580799999999997,0.849913
1630678981697,-0.09820999999999999,0.489708,0.857355
1630678981707,-0.097051,0.48257099999999997,0.862601
1630678981716,-0.098332,0.47604399999999997,0.869006
1630678981726,-0.096929,0.471713,0.8741909999999999
1630678981735,-0.09589199999999999,0.477325,0.8763259999999999
1630678981745,-0.09638,0.476776,0.882792
1630678981755,-0.097722,0.47031,0.88877
1630678981764,-0.097112,0.463478,0.891698
1630678981774,-0.097234,0.453901,0.895541
1630678981783,-0.098454,0.444202,0.901702
1630678981793,-0.097417,0.43127,0.9088999999999999
1630678981803,-0.095404,0.416386,0.910303
1630678981812,-0.092232,0.402478,0.911157
1630678981822,-0.091012,0.399184,0.912743
1630678981831,-0.09235399999999999,0.399184,0.917928
1630678981841,-0.091988,0.394426,0.916464
1630678981851,-0.093635,0.392169,0.919148
1630678981860,-0.09394,0.388753,0.922015
1630678981870,-0.093757,0.38387299999999996,0.923052
1630678981879,-0.09235399999999999,0.380701,0.923723
1630678981889,-0.093086,0.379115,0.921771
1630678981899,-0.093635,0.378749,0.92415
1630678981908,-0.094184,0.379786,0.9234789999999999
1630678981918,-0.097783,0.37929799999999997,0.919087
1630678981927,-0.102419,0.380274,0.914024
1630678981937,-0.105042,0.380274,0.908351
1630678981947,-0.107543,0.380396,0.905179
1630678981956,-0.109373,0.386374,0.910486
1630678981966,-0.12486699999999999,0.409859,0.937326
1630678981975,-0.088755,0.371063,0.883707
1630678981985,-0.098454,0.391376,0.8966999999999999
1630678981995,-0.10553,0.394731,0.896334
1630678982004,-0.106201,0.395402,0.895724
1630678982014,-0.108519,0.398635,0.897188
1630678982023,-0.108885,0.400648,0.896944
1630678982033,-0.108946,0.40077,0.8997499999999999
1630678982043,-0.109251,0.405528,0.8994449999999999
1630678982052,-0.11163,0.409737,0.900787
1630678982062,-0.111508,0.40748,0.904996
1630678982071,-0.10992199999999999,0.40516199999999997,0.910364
1630678982081,-0.10858,0.403454,0.915915
1630678982091,-0.106872,0.401624,0.918416
1630678982100,-0.104432,0.399306,0.920917
1630678982110,-0.105347,0.399916,0.92293
1630678982119,-0.105591,0.401868,0.918477
1630678982129,-0.104859,0.406931,0.913719
1630678982139,-0.107665,0.41168899999999997,0.908656
1630678982148,-0.10961699999999999,0.414007,0.903898
1630678982158,-0.113277,0.415776,0.8966999999999999
1630678982167,-0.115534,0.419741,0.897554
1630678982177,-0.116632,0.423523,0.896639
1630678982187,-0.117547,0.427305,0.894504
1630678982196,-0.112728,0.425292,0.888404
1630678982206,-0.115229,0.433466,0.8854759999999999
1630678982215,-0.117669,0.438285,0.8809009999999999
1630678982225,-0.120414,0.44029799999999997,0.875899
1630678982235,-0.12017,0.43737,0.8772409999999999
1630678982244,-0.116754,0.435174,0.880718
1630678982254,-0.11730299999999999,0.435662,0.883219
1630678982263,-0.116022,0.43798,0.887245
1630678982273,-0.112972,0.43846799999999997,0.892308
1630678982283,-0.111203,0.43755299999999997,0.893528
1630678982292,-0.109678,0.437675,0.8951749999999999
1630678982302,-0.108702,0.43846799999999997,0.894321
1630678982311,-0.109556,0.442006,0.890356
1630678982321,-0.112301,0.440725,0.88633
1630678982331,-0.114802,0.436577,0.881755
1630678982340,-0.114802,0.434747,0.879193
1630678982350,-0.113826,0.435052,0.8793759999999999
1630678982359,-0.115839,0.434625,0.876753
1630678982369,-0.11638799999999999,0.437431,0.875289
1630678982379,-0.118279,0.441335,0.87108
1630678982388,-0.120475,0.445178,0.870958
1630678982398,-0.12071899999999999,0.448838,0.873093
1630678982407,-0.122122,0.44652,0.874252
1630678982417,-0.122427,0.441091,0.876814
1630678982427,-0.122183,0.434808,0.8769359999999999
1630678982436,-0.122793,0.427854,0.8769359999999999
1630678982446,-0.12322,0.42401099999999997,0.875533
1630678982455,-0.123586,0.422913,0.875289
1630678982465,-0.12566,0.42645099999999997,0.868335
1630678982475,-0.133102,0.432185,0.857599
1630678982484,-0.141642,0.437919,0.84119
1630678982494,-0.149572,0.438651,0.825147
1630678982503,-0.15189,0.427122,0.819535
1630678982513,-0.145119,0.420351,0.828014
1630678982523,-0.13176,0.415532,0.849486
1630678982532,-0.122122,0.413336,0.873642
1630678982542,-0.11840099999999999,0.414495,0.894931
1630678982551,-0.11516799999999999,0.421571,0.908839
1630678982561,-0.122488,0.42614599999999997,0.913353
1630678982571,-0.127307,0.42828099999999997,0.921222
1630678982580,-0.129137,0.423157,0.927993
1630678982590,-0.13480999999999999,0.41138399999999997,0.932812
1630678982599,-0.141215,0.399428,0.937936
1630678982609,-0.144692,0.382775,0.940376
1630678982619,-0.150914,0.373808,0.938912
1630678982628,-0.156526,0.370575,0.9378139999999999
1630678982638,-0.160308,0.369233,0.940803
1630678982647,-0.163907,0.36636599999999997,0.940559
1630678982657,-0.166164,0.36539,0.937082
1630678982667,-0.16683499999999998,0.365207,0.934642
1630678982676,-0.17025099999999999,0.365634,0.931592
1630678982686,-0.171044,0.366305,0.931226
1630678982695,-0.171227,0.365695,0.929152
1630678982705,-0.17299599999999998,0.367403,0.9219539999999999
1630678982715,-0.172569,0.37063599999999997,0.919697
1630678982724,-0.171288,0.373625,0.9182939999999999
1630678982734,-0.171227,0.373198,0.915854
1630678982743,-0.170434,0.369599,0.915915
1630678982753,-0.167506,0.368867,0.917501
1630678982763,-0.165371,0.369172,0.919941
1630678982772,-0.163602,0.368074,0.918843
1630678982782,-0.16348,0.36789099999999997,0.916708
1630678982791,-0.162748,0.367342,0.914939
1630678982801,-0.161467,0.366,0.912926
1630678982811,-0.157502,0.369355,0.911462
1630678982820,-0.154269,0.374723,0.914024
1630678982830,-0.15237799999999999,0.375028,0.9140849999999999
1630678982839,-0.152317,0.376675,0.911279
1630678982849,-0.15067,0.380396,0.9113399999999999
1630678982859,-0.14945,0.38112799999999997,0.913963
1630678982868,-0.14884,0.37899299999999997,0.912743
1630678982878,-0.147498,0.37807799999999997,0.909754
1630678982887,-0.149084,0.377651,0.9104249999999999
1630678982897,-0.146156,0.378505,0.9116449999999999
1630678982907,-0.146461,0.378871,0.909022
1630678982916,-0.14884,0.38369,0.9052399999999999
1630678982926,-0.14865699999999998,0.384544,0.903959
1630678982935,-0.1464,0.383995,0.9067649999999999
1630678982945,-0.144692,0.381982,0.906948
1630678982955,-0.14249599999999998,0.383812,0.9113399999999999
1630678982964,-0.141703,0.38186,0.906338
1630678982974,-0.143411,0.39161999999999997,0.9085949999999999
1630678982983,-0.137433,0.393999,0.922076
1630678982993,-0.13115,0.394121,0.924821
1630678983003,-0.133285,0.389668,0.9195139999999999
1630678983012,-0.131394,0.385581,0.92049
1630678983022,-0.128405,0.387045,0.92232
1630678983031,-0.125233,0.388814,0.92293
1630678983041,-0.125843,0.387472,0.922198
1630678983051,-0.127429,0.39070499999999997,0.917562
1630678983060,-0.127063,0.388387,0.912926
1630678983070,-0.125355,0.388021,0.9079849999999999
1630678983079,-0.12315899999999999,0.390461,0.9037149999999999
1630678983089,-0.121085,0.396256,0.9009699999999999
1630678983099,-0.120109,0.406809,0.898408
1630678983108,-0.11992599999999999,0.416935,0.892247
1630678983118,-0.118218,0.423523,0.891881
1630678983127,-0.114619,0.426329,0.891454
1630678983137,-0.111874,0.429867,0.88938
1630678983147,-0.109129,0.432673,0.886879
1630678983156,-0.106201,0.4331,0.8836459999999999
1630678983166,-0.102968,0.435784,0.87962
1630678983175,-0.10052799999999999,0.441884,0.876082
1630678983185,-0.098637,0.448838,0.870714
1630678983195,-0.098149,0.457378,0.862418
1630678983204,-0.097051,0.46738199999999996,0.852414
1630678983214,-0.095526,0.475556,0.843508
1630678983223,-0.093818,0.481534,0.837652
1630678983233,-0.092964,0.487207,0.832284
1630678983243,-0.090768,0.493734,0.830759
1630678983252,-0.090097,0.499956,0.829844
1630678983262,-0.08967,0.504348,0.829051
1630678983271,-0.089975,0.503921,0.829722
1630678983281,-0.089792,0.504592,0.831369
1630678983291,-0.08881599999999999,0.506788,0.832894
1630678983300,-0.088084,0.507154,0.836554
1630678983310,-0.086681,0.506727,0.841007
1630678983319,-0.084302,0.508923,0.84607
1630678983329,-0.083021,0.510997,0.849608
1630678983339,-0.083448,0.510448,0.851499
1630678983348,-0.083753,0.508008,0.852719
1630678983358,-0.083692,0.506483,0.854
1630678983367,-0.083936,0.503311,0.857843
1630678983377,-0.084668,0.497699,0.8611369999999999
1630678983387,-0.086254,0.492392,0.863028
1630678983396,-0.086986,0.487512,0.862418
1630678983406,-0.087474,0.483669,0.8638819999999999
1630678983415,-0.088145,0.482815,0.863943
1630678983425,-0.089914,0.482388,0.865163
1630678983435,-0.089487,0.480863,0.8711409999999999
1630678983444,-0.089243,0.47787399999999997,0.872422
1630678983454,-0.08967,0.47641,0.8729709999999999
1630678983463,-0.089548,0.47275,0.8754109999999999
1630678983473,-0.088755,0.467626,0.876753
1630678983483,-0.088145,0.466833,0.8772409999999999
1630678983492,-0.088694,0.467016,0.879193
1630678983502,-0.089792,0.466894,0.8763259999999999
1630678983511,-0.092293,0.468541,0.874069
1630678983521,-0.092171,0.467809,0.874008
1630678983531,-0.094123,0.46860199999999996,0.871568
1630678983540,-0.09455,0.467443,0.873093
1630678983550,-0.093391,0.466223,0.874435
1630678983559,-0.091988,0.469334,0.877363
1630678983569,-0.09113399999999999,0.465674,0.8778509999999999
1630678983579,-0.09089,0.462868,0.878095
1630678983588,-0.090951,0.46463699999999997,0.877302
1630678983598,-0.090646,0.463966,0.8781559999999999
1630678983607,-0.090524,0.462929,0.8809009999999999
1630678983617,-0.090219,0.46116,0.882914
1630678983627,-0.090646,0.460855,0.8830359999999999
1630678983636,-0.090524,0.45872,0.886025
1630678983646,-0.090158,0.45658499999999996,0.887245
1630678983655,-0.08912099999999999,0.457622,0.884927
1630678983665,-0.08497299999999999,0.454267,0.885049
1630678983675,-0.081862,0.453352,0.887855
1630678983684,-0.083631,0.454877,0.88328
1630678983694,-0.084668,0.457866,0.881328
1630678983703,-0.083997,0.455182,0.879193
1630678983713,-0.083143,0.452803,0.878095
1630678983723,-0.078751,0.448106,0.8815109999999999
1630678983732,-0.07686,0.444446,0.883463
1630678983742,-0.07710399999999999,0.444324,0.884988
1630678983751,-0.076128,0.44469,0.8830359999999999
1630678983761,-0.07503,0.441335,0.884622
1630678983771,-0.074786,0.43676,0.886452
1630678983780,-0.07417599999999999,0.435174,0.886025
1630678983790,-0.075335,0.435662,0.8879159999999999
1630678983799,-0.075701,0.43572299999999997,0.890356
1630678983809,-0.07417599999999999,0.433527,0.892857
1630678983819,-0.07417599999999999,0.432185,0.893528
1630678983828,-0.07564,0.429684,0.889685
1630678983838,-0.07686,0.424743,0.892308
1630678983847,-0.072102,0.426268,0.900116
1630678983857,-0.071797,0.429318,0.904691
1630678983867,-0.07063799999999999,0.43541799999999997,0.904447
1630678983876,-0.072041,0.447313,0.903532
1630678983886,-0.074237,0.453352,0.901946
1630678983895,-0.074542,0.460489,0.900421
1630678983905,-0.074847,0.464393,0.896761
1630678983915,-0.076921,0.457866,0.889319
1630678983924,-0.078141,0.461953,0.886574
1630678983934,-0.076372,0.468724,0.88389
1630678983943,-0.0793,0.474031,0.880718
1630678983953,-0.080459,0.483242,0.879437
1630678983963,-0.085827,0.485804,0.875472
1630678983972,-0.088633,0.48592599999999997,0.868579
1630678983982,-0.090036,0.48745099999999997,0.868274
1630678983991,-0.089548,0.488488,0.869677
1630678984001,-0.090463,0.493734,0.866444
1630678984011,-0.092537,0.509411,0.862601
1630678984020,-0.096258,0.515145,0.855464
1630678984030,-0.098393,0.514962,0.847778
1630678984039,-0.101504,0.518317,0.842166
1630678984049,-0.103334,0.521428,0.838201
1630678984059,-0.106018,0.525881,0.8340529999999999
1630678984068,-0.108031,0.531127,0.828075
1630678984078,-0.108763,0.536556,0.824232
1630678984087,-0.109556,0.5404599999999999,0.819169
1630678984097,-0.110715,0.546072,0.816058
1630678984107,-0.110044,0.552477,0.817278
1630678984116,-0.109678,0.551928,0.816241
1630678984126,-0.107665,0.554185,0.816302
1630678984135,-0.107421,0.554185,0.819657
1630678984145,-0.10498099999999999,0.552477,0.819169
1630678984155,-0.105164,0.550647,0.818071
1630678984164,-0.105408,0.549488,0.81862
1630678984174,-0.105347,0.544181,0.81618
1630678984183,-0.10309,0.539972,0.8158139999999999
1630678984193,-0.10113799999999999,0.536434,0.81923
1630678984203,-0.100101,0.532957,0.818498
1630678984212,-0.097722,0.531737,0.821426
1630678984222,-0.096258,0.530395,0.826306
1630678984231,-0.092476,0.530334,0.831979
1630678984241,-0.090158,0.530029,0.83875
1630678984251,-0.087413,0.527284,0.845826
1630678984260,-0.085766,0.5231359999999999,0.846314
1630678984270,-0.084912,0.520574,0.847595
1630678984279,-0.083448,0.51545,0.848205
1630678984289,-0.081435,0.512034,0.852536
1630678984299,-0.079178,0.507093,0.857599
1630678984308,-0.077897,0.502945,0.862479
1630678984318,-0.077287,0.501115,0.866688
1630678984327,-0.076677,0.49977299999999997,0.86925
1630678984337,-0.07564,0.500017,0.86925
1630678984347,-0.074969,0.500932,0.868823
1630678984356,-0.076311,0.504348,0.867603
1630678984366,-0.07710399999999999,0.505019,0.863211
1630678984375,-0.077897,0.505446,0.859246
1630678984385,-0.080154,0.507459,0.857294
1630678984395,-0.081496,0.506361,0.855403
1630678984404,-0.082228,0.503738,0.852536
1630678984414,-0.081984,0.503433,0.851926
1630678984423,-0.080459,0.504897,0.853451
1630678984433,-0.082228,0.507215,0.856318
1630678984443,-0.081679,0.507581,0.856684
1630678984452,-0.082899,0.50813,0.856684
1630678984462,-0.082228,0.507642,0.855891
1630678984471,-0.082289,0.510692,0.856623
1630678984481,-0.082228,0.51057,0.8550369999999999
1630678984491,-0.082411,0.510692,0.8522919999999999
1630678984500,-0.082716,0.510021,0.850096
1630678984510,-0.082106,0.50874,0.8479
1630678984519,-0.08265499999999999,0.50813,0.845887
1630678984529,-0.082533,0.510936,0.845155
1630678984539,-0.082899,0.509594,0.844545
1630678984548,-0.079971,0.508313,0.848754
1630678984558,-0.078019,0.509228,0.850035
1630678984567,-0.076738,0.508984,0.851621
1630678984577,-0.076921,0.509411,0.8495469999999999
1630678984587,-0.076921,0.509411,0.8516819999999999
1630678984596,-0.076372,0.5063,0.8525969999999999
1630678984606,-0.075396,0.503799,0.853268
1630678984615,-0.075884,0.502945,0.853024
1630678984625,-0.074542,0.502823,0.853695
1630678984635,-0.074664,0.503982,0.8553419999999999
1630678984644,-0.074847,0.50569,0.856074
1630678984654,-0.07564,0.507154,0.858636
1630678984663,-0.076006,0.507642,0.858514
1630678984673,-0.076921,0.508008,0.85888
1630678984683,-0.076982,0.505324,0.8583919999999999
1630678984692,-0.076372,0.501847,0.85705
1630678984702,-0.076006,0.501725,0.858819
1630678984711,-0.075457,0.502518,0.861381
1630678984721,-0.075457,0.504043,0.859978
1630678984731,-0.075152,0.50508,0.858209
1630678984740,-0.07564,0.503677,0.85583
1630678984750,-0.074786,0.50325,0.856745
1630678984759,-0.073993,0.503311,0.854915
1630678984769,-0.075274,0.50081,0.852536
1630678984779,-0.076128,0.501603,0.85217
1630678984788,-0.077836,0.503677,0.8538169999999999
1630678984798,-0.07747,0.503433,0.8547319999999999
1630678984807,-0.075884,0.502945,0.858026
1630678984817,-0.075335,0.503189,0.86071
1630678984827,-0.07564,0.501908,0.8601
1630678984836,-0.075335,0.501359,0.857599
1630678984846,-0.07686,0.500139,0.8583919999999999
1630678984855,-0.077653,0.498736,0.858453
1630678984865,-0.077775,0.499041,0.858331
1630678984875,-0.078812,0.497211,0.857111
1630678984884,-0.080215,0.499651,0.859246
1630678984894,-0.07972699999999999,0.502335,0.8596119999999999
1630678984903,-0.080093,0.504043,0.85888
1630678984913,-0.081374,0.505263,0.858148
1630678984923,-0.082411,0.504043,0.856806
1630678984932,-0.083143,0.501664,0.85705
1630678984942,-0.082594,0.499346,0.854793
1630678984951,-0.083631,0.498431,0.856013
1630678984961,-0.083875,0.500566,0.85644
1630678984971,-0.083448,0.501786,0.857843
1630678984980,-0.084302,0.504531,0.856501
1630678984990,-0.083448,0.50447,0.855403
1630678984999,-0.086132,0.505446,0.853756
1630678985009,-0.087291,0.506422,0.851499
1630678985019,-0.08942599999999999,0.50386,0.847595
1630678985028,-0.090951,0.504958,0.848449
1630678985038,-0.09174399999999999,0.505446,0.8501569999999999
1630678985047,-0.09272,0.504348,0.851194
1630678985057,-0.091378,0.503982,0.8522919999999999
1630678985067,-0.090036,0.501969,0.853268
1630678985076,-0.09089,0.502457,0.856196
1630678985086,-0.089548,0.50264,0.857965
1630678985095,-0.090341,0.500688,0.8590019999999999
1630678985105,-0.090829,0.497821,0.86132
1630678985115,-0.089975,0.495076,0.8620519999999999
1630678985124,-0.08906,0.49489299999999997,0.864614
1630678985134,-0.08784,0.493429,0.865041
1630678985143,-0.08881599999999999,0.492514,0.866078
1630678985153,-0.08845,0.49111099999999996,0.864736
1630678985163,-0.089975,0.49227,0.864675
1630678985172,-0.090402,0.492758,0.86315
1630678985182,-0.091866,0.491294,0.862418
1630678985191,-0.09235399999999999,0.490135,0.860771
1630678985201,-0.090829,0.490257,0.861076
1630678985211,-0.090707,0.490379,0.86071
1630678985220,-0.090768,0.492819,0.861564
1630678985230,-0.0915,0.494283,0.8623569999999999
1630678985239,-0.091073,0.49471,0.861686
1630678985249,-0.090585,0.493978,0.863028
1630678985259,-0.089792,0.49263599999999996,0.863394
1630678985268,-0.089609,0.490257,0.863455
1630678985278,-0.08820599999999999,0.489952,0.8629669999999999
1630678985287,-0.088877,0.490989,0.86315
1630678985297,-0.088877,0.491172,0.864126
1630678985307,-0.09089,0.49080599999999996,0.862906
1630678985316,-0.090158,0.49019599999999997,0.862174
1630678985326,-0.090951,0.488854,0.861808
1630678985335,-0.08967,0.488,0.86315
1630678985345,-0.08784,0.488488,0.863699
1630678985355,-0.087474,0.48836599999999997,0.863638
1630678985364,-0.08790099999999999,0.48617,0.862113
1630678985374,-0.088145,0.486475,0.8608319999999999
1630678985383,-0.089365,0.487329,0.862174
1630678985393,-0.090036,0.487634,0.861625
1630678985403,-0.089914,0.48928099999999997,0.864736
1630678985412,-0.089182,0.488,0.864065
1630678985422,-0.08912099999999999,0.48897599999999997,0.862906
1630678985431,-0.090097,0.48983,0.863333
1630678985441,-0.090951,0.490379,0.86498
1630678985451,-0.090829,0.488427,0.866322
1630678985460,-0.089548,0.48440099999999997,0.86498
1630678985470,-0.08881599999999999,0.482449,0.864553
1630678985479,-0.088999,0.48129,0.8641869999999999
1630678985489,-0.08820599999999999,0.4819,0.866627
1630678985499,-0.087108,0.48373,0.867908
1630678985508,-0.088084,0.48470599999999997,0.869067
1630678985518,-0.087718,0.482083,0.869982
1630678985527,-0.087596,0.480863,0.870348
1630678985537,-0.087169,0.477935,0.870653
1630678985547,-0.087291,0.477752,0.871202
1630678985556,-0.08588799999999999,0.476227,0.871019
1630678985566,-0.086254,0.47543399999999997,0.870409
1630678985575,-0.0854,0.4758,0.871202
1630678985585,-0.085034,0.48068,0.871812
1630678985595,-0.0854,0.484035,0.870897
1630678985604,-0.085339,0.481595,0.869982
1630678985614,-0.084851,0.480802,0.867054
1630678985623,-0.085034,0.480985,0.8651019999999999
1630678985633,-0.084546,0.479155,0.867115
1630678985643,-0.083814,0.47641,0.86986
1630678985652,-0.08356999999999999,0.475983,0.871873
1630678985662,-0.08174,0.477996,0.873642
1630678985671,-0.081435,0.479521,0.874374
1630678985681,-0.082289,0.481839,0.87413
1630678985691,-0.08295999999999999,0.483059,0.87291
1630678985700,-0.08356999999999999,0.482144,0.869372
1630678985710,-0.085095,0.480131,0.866627
1630678985719,-0.084424,0.47817899999999997,0.8641869999999999
1630678985729,-0.084546,0.478057,0.864248
1630678985739,-0.084668,0.477203,0.865041
1630678985748,-0.083936,0.479643,0.866383
1630678985758,-0.084912,0.481412,0.867176
1630678985767,-0.085827,0.482083,0.867298
1630678985777,-0.085644,0.48092399999999996,0.867969
1630678985787,-0.085034,0.48031399999999996,0.86681
1630678985796,-0.086925,0.48007,0.866139
1630678985806,-0.087352,0.480436,0.865895
1630678985815,-0.087474,0.481839,0.867054
1630678985825,-0.086864,0.481473,0.867908
1630678985835,-0.088633,0.480375,0.868579
1630678985844,-0.085949,0.481168,0.867542
1630678985854,-0.089487,0.4819,0.867542
1630678985863,-0.08906,0.481168,0.866444
1630678985873,-0.089182,0.47946,0.865041
1630678985883,-0.088328,0.478911,0.864614
1630678985892,-0.089182,0.478362,0.866505
1630678985902,-0.08912099999999999,0.477508,0.867847
1630678985911,-0.087962,0.478423,0.86925
1630678985921,-0.086315,0.47817899999999997,0.87108
1630678985931,-0.086376,0.47756899999999997,0.8723
1630678985940,-0.085522,0.476837,0.872788
1630678985950,-0.08588799999999999,0.477081,0.872483
1630678985959,-0.085339,0.477142,0.873215
1630678985969,-0.08619299999999999,0.475556,0.87291
1630678985979,-0.08662,0.47451899999999997,0.871812
1630678985988,-0.08723,0.47329899999999997,0.8717509999999999
1630678985998,-0.087169,0.471286,0.871385
1630678986007,-0.084607,0.469517,0.871568
1630678986017,-0.08558299999999999,0.469822,0.8723
1630678986027,-0.08649799999999999,0.47207899999999997,0.871202
1630678986036,-0.08527799999999999,0.472323,0.8720559999999999
1630678986046,-0.08527799999999999,0.472201,0.871934
1630678986055,-0.08497299999999999,0.47275,0.872849
1630678986065,-0.0854,0.471652,0.873093
1630678986075,-0.087108,0.468846,0.871873
1630678986084,-0.08784,0.46787,0.872178
1630678986094,-0.08790099999999999,0.46860199999999996,0.873398
1630678986103,-0.087108,0.467504,0.875045
1630678986113,-0.087413,0.467443,0.875777
1630678986123,-0.088084,0.466711,0.875899
1630678986132,-0.08790099999999999,0.46646699999999996,0.8760209999999999
1630678986142,-0.088694,0.466833,0.877424
1630678986151,-0.088999,0.467504,0.877485
1630678986161,-0.089487,0.46738199999999996,0.876997
1630678986171,-0.089914,0.46677199999999996,0.876204
1630678986180,-0.090341,0.465979,0.876265
1630678986190,-0.090036,0.463844,0.876204
1630678986199,-0.08906,0.463356,0.877363
1630678986209,-0.08845,0.462563,0.878644
1630678986219,-0.08851099999999999,0.46219699999999997,0.879254
1630678986228,-0.088145,0.46280699999999997,0.881023
1630678986238,-0.088145,0.462746,0.879864
1630678986247,-0.088145,0.46189199999999997,0.880535
1630678986257,-0.087352,0.462929,0.8799859999999999
1630678986267,-0.08784,0.46421,0.878949
1630678986276,-0.086986,0.465918,0.879864
1630678986286,-0.086864,0.46555199999999997,0.878522
1630678986295,-0.087047,0.46341699999999997,0.8784
1630678986305,-0.085766,0.46238,0.876997
1630678986315,-0.085217,0.462624,0.875899
1630678986324,-0.085034,0.464454,0.876082
1630678986334,-0.085339,0.464698,0.8769359999999999
1630678986343,-0.082228,0.463356,0.875594
1630678986353,-0.083753,0.465308,0.8751059999999999
1630678986363,-0.082472,0.46738199999999996,0.8763259999999999
1630678986372,-0.08174,0.46799199999999996,0.8760209999999999
1630678986382,-0.08295999999999999,0.467016,0.873398
1630678986391,-0.08265499999999999,0.465186,0.8708359999999999
1630678986401,-0.081923,0.464576,0.870409
1630678986411,-0.08174,0.46543,0.870348
1630678986420,-0.08326499999999999,0.465918,0.871812
1630678986430,-0.081679,0.465735,0.874313
1630678986439,-0.07991,0.465735,0.877485
1630678986449,-0.080154,0.465796,0.879742
1630678986459,-0.080093,0.468724,0.88084
1630678986468,-0.07972699999999999,0.470249,0.881877
1630678986478,-0.08113,0.468419,0.880413
1630678986487,-0.080276,0.46848,0.8790709999999999
1630678986497,-0.081496,0.46799199999999996,0.874374
1630678986507,-0.082594,0.46707699999999996,0.871263
1630678986516,-0.082167,0.467138,0.86986
1630678986526,-0.08265499999999999,0.46738199999999996,0.870348
1630678986535,-0.08234999999999999,0.46909,0.870775
1630678986545,-0.083021,0.47116399999999997,0.871934
1630678986555,-0.083204,0.47336,0.871873
1630678986564,-0.083692,0.474946,0.869311
1630678986574,-0.083875,0.477081,0.867664
1630678986583,-0.085766,0.477935,0.865285
1630678986593,-0.08619299999999999,0.47848399999999996,0.864614
1630678986603,-0.086986,0.47824,0.8651019999999999
1630678986612,-0.087047,0.47787399999999997,0.866993
1630678986622,-0.089975,0.479643,0.867664
1630678986631,-0.091317,0.482083,0.86559
1630678986641,-0.091256,0.483608,0.864614
1630678986651,-0.093086,0.48592599999999997,0.86498
1630678986660,-0.094306,0.483608,0.863516
1630678986670,-0.095038,0.476105,0.864065
1630678986679,-0.096624,0.46848,0.864736
1630678986689,-0.09589199999999999,0.461709,0.866261
1630678986699,-0.09436699999999999,0.466955,0.86803
1630678986708,-0.09467199999999999,0.478545,0.866688
1630678986718,-0.097722,0.488305,0.8662
1630678986727,-0.101626,0.49355099999999996,0.864248
1630678986737,-0.105286,0.49349,0.862235
1630678986747,-0.10614,0.48653599999999997,0.862235
1630678986756,-0.10614,0.479338,0.861869
1630678986766,-0.10406599999999999,0.468419,0.861198
1630678986775,-0.099857,0.45597499999999996,0.860039
1630678986785,-0.100467,0.449753,0.8617469999999999
1630678986795,-0.099796,0.445117,0.864736
1630678986804,-0.09698999999999999,0.459269,0.86315
1630678986814,-0.100345,0.475373,0.866688
1630678986823,-0.100955,0.465064,0.862906
1630678986833,-0.100284,0.452376,0.861381
1630678986843,-0.096441,0.43859,0.867359
1630678986852,-0.093818,0.426634,0.876509
1630678986862,-0.091256,0.416447,0.8848659999999999
1630678986871,-0.088999,0.402539,0.897432
1630678986881,-0.083814,0.39344999999999997,0.909571
1630678986891,-0.081679,0.389302,0.918111
1630678986900,-0.07991,0.380884,0.9246989999999999
1630678986910,-0.078019,0.377529,0.9295789999999999
1630678986919,-0.078995,0.36941599999999997,0.930677
1630678986929,-0.07972699999999999,0.363072,0.93269
1630678986939,-0.080886,0.35709399999999997,0.9333
1630678986948,-0.081618,0.351238,0.9347639999999999
1630678986958,-0.080703,0.34446699999999997,0.93879
1630678986967,-0.077775,0.339953,0.945317
1630678986977,-0.077043,0.343186,0.945317
1630678986987,-0.079544,0.341783,0.947574
1630678986996,-0.079483,0.335317,0.9499529999999999
1630678987006,-0.07808,0.330193,0.950807
1630678987015,-0.076433,0.32970499999999997,0.954589
1630678987025,-0.077958,0.331901,0.955992
1630678987035,-0.081923,0.332206,0.95587
1630678987044,-0.085339,0.336842,0.953247
1630678987054,-0.088938,0.341661,0.949099
1630678987063,-0.090951,0.34538199999999997,0.943975
1630678987073,-0.09455,0.348432,0.9314089999999999
1630678987083,-0.096868,0.3477,0.923906
1630678987092,-0.095831,0.347517,0.925126
1630678987102,-0.096502,0.347456,0.930006
1630678987111,-0.097661,0.350567,0.932446
1630678987121,-0.099064,0.351726,0.925797
1630678987131,-0.102175,0.35678899999999997,0.922625
1630678987140,-0.106323,0.362584,0.919697
1630678987150,-0.107665,0.36453599999999997,0.918416
1630678987159,-0.108824,0.368684,0.915854
1630678987169,-0.109678,0.369233,0.911157
1630678987179,-0.10900699999999999,0.372832,0.909144
1630678987188,-0.109678,0.374296,0.908412
1630678987198,-0.110593,0.37594299999999997,0.9082899999999999
1630678987207,-0.110898,0.37759,0.907802
1630678987217,-0.112606,0.379542,0.907924
1630678987227,-0.113094,0.382409,0.9058499999999999
1630678987236,-0.11315499999999999,0.386374,0.906216
1630678987246,-0.111203,0.390339,0.905484
1630678987255,-0.112057,0.393328,0.901763
1630678987265,-0.112423,0.396805,0.900604
1630678987275,-0.114253,0.39711,0.899628
1630678987284,-0.114497,0.398208,0.899689
1630678987294,-0.114924,0.397537,0.9003599999999999
1630678987303,-0.112972,0.397476,0.9031049999999999
1630678987313,-0.112789,0.400221,0.9021899999999999
1630678987323,-0.113094,0.401868,0.902434
1630678987332,-0.113094,0.401624,0.903288
1630678987342,-0.113094,0.406321,0.903166
1630678987351,-0.112057,0.407114,0.903837
1630678987361,-0.111569,0.407785,0.904874
1630678987371,-0.111203,0.40748,0.906826
1630678987380,-0.111447,0.407541,0.906887
1630678987390,-0.111325,0.40699199999999996,0.905667
1630678987399,-0.111264,0.408944,0.905423
1630678987409,-0.113582,0.411933,0.904874
1630678987419,-0.11284999999999999,0.413397,0.903593
1630678987428,-0.112301,0.41992399999999996,0.904569
1630678987438,-0.112179,0.42273,0.902251
1630678987447,-0.114619,0.425414,0.898408
1630678987457,-0.11638799999999999,0.423828,0.896639
1630678987467,-0.116876,0.41992399999999996,0.898774
1630678987476,-0.117608,0.415715,0.898469
1630678987486,-0.115961,0.41168899999999997,0.900604
1630678987495,-0.116876,0.408517,0.901153
1630678987505,-0.11730299999999999,0.409676,0.899567
1630678987515,-0.11773,0.409798,0.897554
1630678987524,-0.117608,0.407114,0.898042
1630678987534,-0.116876,0.40687,0.897798
1630678987543,-0.117547,0.40699199999999996,0.894748
1630678987553,-0.119804,0.404308,0.895663
1630678987563,-0.11870599999999999,0.400038,0.896273
1630678987572,-0.11773,0.396439,0.8963949999999999
1630678987582,-0.117486,0.394914,0.897554
1630678987591,-0.117059,0.391986,0.899933
1630678987601,-0.11516799999999999,0.387411,0.903349
1630678987611,-0.11406999999999999,0.383446,0.906704
1630678987620,-0.113094,0.38082299999999997,0.909937
1630678987630,-0.11254499999999999,0.374052,0.913231
1630678987639,-0.111569,0.36905,0.9182939999999999
1630678987649,-0.109861,0.365878,0.924028
1630678987659,-0.107787,0.36514599999999997,0.925736
1630678987668,-0.106445,0.36356,0.927261
1630678987678,-0.10553,0.360266,0.93147
1630678987687,-0.103822,0.35807,0.934825
1630678987697,-0.101687,0.355935,0.9368989999999999
1630678987707,-0.100284,0.355813,0.937326
1630678987716,-0.101565,0.35404399999999997,0.934825
1630678987726,-0.10065,0.354166,0.9359839999999999
1630678987735,-0.099247,0.353983,0.937936
1630678987745,-0.097051,0.353373,0.938668
1630678987755,-0.095648,0.35678899999999997,0.936716
1630678987764,-0.09698999999999999,0.361364,0.9317139999999999
1630678987774,-0.098088,0.362401,0.930616
1630678987783,-0.098942,0.366244,0.9271389999999999
1630678987793,-0.100162,0.371612,0.923906
1630678987803,-0.099735,0.375394,0.9216489999999999
1630678987812,-0.099186,0.379847,0.91805
1630678987822,-0.100589,0.382104,0.91439
1630678987831,-0.099796,0.383202,0.910974
1630678987841,-0.100162,0.3843,0.904813
1630678987851,-0.099674,0.388204,0.9021899999999999
1630678987860,-0.099003,0.392474,0.9015799999999999
1630678987870,-0.098698,0.396988,0.897249
1630678987879,-0.099369,0.40443,0.892918
1630678987889,-0.10187,0.413946,0.886635
1630678987899,-0.101565,0.425475,0.8812059999999999
1630678987908,-0.105103,0.436394,0.87657
1630678987918,-0.10376099999999999,0.447252,0.875228
1630678987927,-0.103517,0.44834999999999997,0.872727
1630678987937,-0.103944,0.455914,0.875045
1630678987947,-0.101931,0.45994,0.877424
1630678987956,-0.098454,0.455243,0.874008
1630678987966,-0.09638,0.451888,0.8732759999999999
1630678987975,-0.09333,0.452376,0.874618
1630678987985,-0.094428,0.452071,0.878888
1630678987995,-0.09528199999999999,0.446581,0.886757
1630678988004,-0.090097,0.444934,0.899079
1630678988014,-0.084241,0.447923,0.909571
1630678988023,-0.078324,0.452864,0.921283
1630678988033,-0.071614,0.4575,0.933361
1630678988043,-0.066002,0.453779,0.939644
1630678988052,-0.066246,0.445849,0.9438529999999999
1630678988062,-0.066063,0.434808,0.944951
1630678988071,-0.065697,0.424804,0.939278
1630678988081,-0.066185,0.42212,0.928298
1630678988091,-0.066856,0.414068,0.915488
1630678988100,-0.062098,0.40748,0.905362
1630678988110,-0.054534,0.41199399999999997,0.893528
1630678988119,-0.048068,0.421571,0.885598
1630678988129,-0.043737,0.434076,0.8793759999999999
1630678988139,-0.040992,0.448167,0.8748009999999999
1630678988148,-0.03904,0.461526,0.869067
1630678988158,-0.039589,0.468114,0.863699
1630678988167,-0.037149,0.471896,0.859856
1630678988177,-0.035441,0.475007,0.856379
1630678988187,-0.037942,0.477508,0.85156
1630678988196,-0.04026,0.47817899999999997,0.84851
1630678988206,-0.04087,0.476776,0.846436
1630678988215,-0.039345,0.477081,0.843447
1630678988225,-0.042578,0.48129,0.842166
1630678988235,-0.04636,0.482815,0.8398479999999999
1630678988244,-0.047824,0.482693,0.8367979999999999
1630678988254,-0.048799999999999996,0.485499,0.836676
1630678988263,-0.050752,0.485438,0.8364929999999999
1630678988273,-0.049654,0.487634,0.837957
1630678988283,-0.046665,0.488,0.841495
1630678988292,-0.047030999999999996,0.486597,0.847961
1630678988302,-0.045323,0.48312,0.8535119999999999
1630678988311,-0.048007,0.47634899999999997,0.859429
1630678988321,-0.051118,0.472445,0.862784
1630678988331,-0.052337999999999996,0.467016,0.8635769999999999
1630678988340,-0.051727999999999996,0.46250199999999997,0.868274
1630678988350,-0.050752,0.459696,0.874862
1630678988359,-0.050142,0.455609,0.879132
1630678988369,-0.049958999999999996,0.456402,0.883768
1630678988379,-0.048739,0.452437,0.886818
1630678988388,-0.047030999999999996,0.450241,0.892125
1630678988398,-0.047824,0.44956999999999997,0.894748
1630678988407,-0.047092,0.44469,0.897554
1630678988417,-0.046909,0.443409,0.8997499999999999
1630678988427,-0.046665,0.441762,0.902373
1630678988436,-0.045506,0.435296,0.9034099999999999
1630678988446,-0.044042,0.43663799999999997,0.9058499999999999
1630678988455,-0.045018,0.43846799999999997,0.906826
1630678988465,-0.043981,0.434076,0.902739
1630678988475,-0.045994,0.434259,0.899933
1630678988484,-0.046848,0.43541799999999997,0.901214
1630678988494,-0.035685,0.417606,0.890173
1630678988503,-0.045323,0.442494,0.930067
1630678988513,-0.039345,0.437431,0.920612
1630678988523,-0.048617,0.433039,0.890234
1630678988532,-0.048494999999999996,0.437797,0.897981
1630678988542,-0.045566999999999996,0.442494,0.902556
1630678988551,-0.049349,0.44456799999999996,0.897493
1630678988561,-0.052032999999999996,0.445117,0.893772
1630678988571,-0.052155,0.444934,0.893101
1630678988580,-0.053496999999999996,0.446154,0.891576
1630678988590,-0.055265999999999996,0.449692,0.889258
1630678988599,-0.056974,0.451888,0.8870009999999999
1630678988609,-0.058621,0.453169,0.884134
1630678988619,-0.05978,0.454877,0.883219
1630678988628,-0.060878,0.453901,0.885049
1630678988638,-0.061854,0.45505999999999996,0.883768
1630678988647,-0.06417199999999999,0.45884199999999997,0.880535
1630678988657,-0.065697,0.459574,0.880474
1630678988667,-0.066307,0.458659,0.880474
1630678988676,-0.066246,0.457012,0.878827
1630678988686,-0.067344,0.459391,0.8793759999999999
1630678988695,-0.068076,0.460428,0.8818159999999999
1630678988705,-0.066978,0.460733,0.8793759999999999
1630678988715,-0.06893,0.46219699999999997,0.875838
1630678988724,-0.069845,0.461831,0.874313
1630678988734,-0.070394,0.46280699999999997,0.874008
1630678988743,-0.069174,0.461221,0.8741909999999999
1630678988753,-0.069723,0.46036699999999997,0.876204
1630678988763,-0.069052,0.456463,0.875594
1630678988772,-0.06954,0.457622,0.8775459999999999
1630678988782,-0.068747,0.461038,0.880474
1630678988791,-0.067893,0.464454,0.882243
1630678988801,-0.065209,0.464454,0.884073
1630678988811,-0.063806,0.463783,0.8870009999999999
1630678988820,-0.061915,0.464454,0.8882209999999999
1630678988830,-0.058926,0.46238,0.886574
1630678988839,-0.060756,0.457378,0.884927
1630678988849,-0.059109,0.45353499999999997,0.886879
1630678988859,-0.056669,0.45109499999999997,0.88877
1630678988868,-0.055083,0.44926499999999997,0.893284
1630678988878,-0.053924,0.449631,0.892918
1630678988887,-0.054107,0.45017999999999997,0.889075
1630678988897,-0.054351,0.449753,0.889746
1630678988907,-0.053863,0.44743499999999997,0.889197
1630678988916,-0.052886999999999997,0.447679,0.889197
1630678988926,-0.053741,0.448777,0.888282
1630678988935,-0.051545,0.449143,0.8879159999999999
1630678988945,-0.050752,0.453779,0.889014
1630678988955,-0.051789,0.456951,0.890234
1630678988964,-0.051179,0.452071,0.887672
1630678988974,-0.050203,0.447984,0.883219
1630678988983,-0.052216,0.449692,0.8827309999999999
1630678988993,-0.052826,0.45109499999999997,0.882548
1630678989003,-0.05307,0.453413,0.880718
1630678989012,-0.053558,0.456829,0.878949
1630678989022,-0.05429,0.455548,0.878034
1630678989031,-0.05368,0.452193,0.879925
1630678989041,-0.052886999999999997,0.452376,0.881084
1630678989051,-0.050203,0.452071,0.883219
1630678989060,-0.049654,0.45231499999999997,0.884683
1630678989070,-0.05002,0.450546,0.886147
1630678989079,-0.050447,0.446642,0.8857809999999999
1630678989089,-0.05246,0.446642,0.887672
1630678989099,-0.054534,0.451217,0.887184
1630678989108,-0.055327,0.451888,0.886147
1630678989118,-0.053314,0.453352,0.887794
1630678989127,-0.054229,0.456829,0.8845609999999999
1630678989137,-0.056364,0.460001,0.883219
1630678989147,-0.057096,0.460245,0.88389
1630678989156,-0.055998,0.456524,0.88145
1630678989166,-0.055205,0.454694,0.880718
1630678989175,-0.058193999999999996,0.454267,0.8793759999999999
1630678989185,-0.059719,0.457988,0.879742
1630678989195,-0.060634,0.462624,0.876082
1630678989204,-0.062280999999999996,0.469578,0.87413
1630678989214,-0.062769,0.476166,0.872483
1630678989223,-0.063806,0.480192,0.871995
1630678989233,-0.06588,0.482632,0.871263
1630678989243,-0.069784,0.484523,0.867359
1630678989252,-0.071309,0.485194,0.865651
1630678989262,-0.072224,0.490562,0.864309
1630678989271,-0.074725,0.49202599999999996,0.863455
1630678989281,-0.075823,0.493063,0.865285
1630678989291,-0.076128,0.49202599999999996,0.862174
1630678989300,-0.076677,0.49141599999999996,0.861991
1630678989310,-0.074786,0.49227,0.8638819999999999
1630678989319,-0.07686,0.49141599999999996,0.865041
1630678989329,-0.078751,0.492575,0.86254
1630678989339,-0.07869,0.493063,0.8602219999999999
1630678989348,-0.079239,0.490074,0.86132
1630678989358,-0.077287,0.485987,0.863516
1630678989367,-0.074969,0.482388,0.867054
1630678989377,-0.073932,0.479765,0.86742
1630678989387,-0.076067,0.47848399999999996,0.868213
1630678989396,-0.0793,0.48092399999999996,0.870348
1630678989406,-0.079849,0.482998,0.8735809999999999
1630678989415,-0.079544,0.48495,0.877485
1630678989425,-0.079971,0.486109,0.879315
1630678989435,-0.077592,0.486475,0.880169
1630678989444,-0.071858,0.474641,0.878583
1630678989454,-0.068625,0.464576,0.8735809999999999
1630678989463,-0.070577,0.468114,0.872178
1630678989473,-0.069235,0.473177,0.8757159999999999
1630678989483,-0.064904,0.469883,0.8711409999999999
1630678989492,-0.066002,0.46787,0.864858
1630678989502,-0.068564,0.47085899999999997,0.86376
1630678989511,-0.07015,0.47336,0.862113
1630678989521,-0.071431,0.47519,0.859856
1630678989531,-0.071858,0.47573899999999997,0.8605269999999999
1630678989540,-0.073627,0.478118,0.860161
1630678989550,-0.075762,0.485682,0.8644919999999999
1630678989559,-0.077897,0.482937,0.867786
1630678989569,-0.07618899999999999,0.476776,0.864858
1630678989579,-0.075457,0.47451899999999997,0.86681
1630678989588,-0.07417599999999999,0.46909,0.866017
1630678989598,-0.075091,0.465796,0.865346
1630678989607,-0.079056,0.465613,0.865773
1630678989617,-0.079971,0.463356,0.866566
1630678989627,-0.079056,0.462624,0.870348
1630678989636,-0.079178,0.462136,0.871629
1630678989646,-0.082289,0.46494199999999997,0.873337
1630678989655,-0.080947,0.466223,0.87779
1630678989665,-0.079666,0.46726,0.8775459999999999
1630678989675,-0.08234999999999999,0.46677199999999996,0.879498
1630678989684,-0.084241,0.464698,0.879559
1630678989694,-0.085095,0.461404,0.88206
1630678989703,-0.083997,0.461526,0.884805
1630678989713,-0.085217,0.46677199999999996,0.8879159999999999
1630678989723,-0.086437,0.469822,0.89121
1630678989732,-0.086681,0.469273,0.889258
1630678989742,-0.088938,0.472323,0.888038
1630678989751,-0.089365,0.47214,0.888709
1630678989761,-0.090158,0.469639,0.885537
1630678989771,-0.09113399999999999,0.467931,0.88328
1630678989780,-0.091378,0.466833,0.88206
1630678989790,-0.091683,0.467809,0.882243
1630678989799,-0.091561,0.468663,0.883219
1630678989809,-0.091012,0.466345,0.88389
1630678989819,-0.091317,0.46494199999999997,0.882243
1630678989828,-0.092537,0.466894,0.881938
1630678989838,-0.092903,0.463905,0.88084
1630678989847,-0.093208,0.465308,0.8809009999999999
1630678989857,-0.093574,0.463173,0.876387
1630678989867,-0.09333,0.460733,0.873337
1630678989876,-0.092293,0.458781,0.872544
1630678989886,-0.091927,0.460184,0.871385
1630678989895,-0.08942599999999999,0.462136,0.8708359999999999
1630678989905,-0.088877,0.466101,0.8735809999999999
1630678989915,-0.090158,0.466955,0.872483
1630678989924,-0.084668,0.449936,0.861259
1630678989934,-0.08418,0.46585699999999997,0.8954799999999999
1630678989943,-0.0854,0.46665,0.895846
1630678989953,-0.09467199999999999,0.462014,0.8711409999999999
1630678989963,-0.09589199999999999,0.46311199999999997,0.871812
1630678989972,-0.091317,0.46677199999999996,0.879132
1630678989982,-0.08967,0.467809,0.879559
1630678989991,-0.09113399999999999,0.464881,0.879254
1630678990001,-0.09143899999999999,0.46372199999999997,0.8796809999999999
1630678990011,-0.09113399999999999,0.46421,0.881999
1630678990020,-0.091561,0.463539,0.879315
1630678990030,-0.094123,0.46189199999999997,0.879742
1630678990039,-0.092415,0.462075,0.879803
1630678990049,-0.091622,0.461404,0.8781559999999999
1630678990059,-0.090768,0.462624,0.874862
1630678990068,-0.094245,0.461099,0.874069
1630678990078,-0.092537,0.46067199999999997,0.872727
1630678990087,-0.090463,0.45994,0.872422
1630678990097,-0.092476,0.462075,0.870714
1630678990107,-0.093574,0.46189199999999997,0.870714
1630678990116,-0.091622,0.45994,0.8723609999999999
1630678990126,-0.089365,0.460123,0.87474
1630678990135,-0.09028,0.463539,0.878827
1630678990145,-0.09028,0.464393,0.878827
1630678990155,-0.08967,0.464149,0.881145
1630678990164,-0.086254,0.462136,0.8827309999999999
1630678990174,-0.086132,0.46128199999999997,0.882365
1630678990183,-0.088755,0.465125,0.8821209999999999
1630678990193,-0.089182,0.463295,0.878949
1630678990203,-0.087474,0.462258,0.87779
1630678990212,-0.08497299999999999,0.467443,0.877668
1630678990222,-0.084729,0.472262,0.879254
1630678990231,-0.0854,0.473421,0.875289
1630678990241,-0.085766,0.473726,0.8732759999999999
1630678990251,-0.084119,0.473238,0.871385
1630678990260,-0.08326499999999999,0.470676,0.870897
1630678990270,-0.081923,0.467748,0.8708359999999999
1630678990279,-0.080825,0.463661,0.872178
1630678990289,-0.080703,0.464088,0.873154
1630678990299,-0.08003199999999999,0.468053,0.875838
1630678990308,-0.07740899999999999,0.469456,0.878827
1630678990318,-0.07710399999999999,0.465674,0.8796809999999999
1630678990327,-0.07564,0.465186,0.879437
1630678990337,-0.076982,0.46189199999999997,0.876265
1630678990347,-0.077226,0.461343,0.876387
1630678990356,-0.076982,0.46006199999999997,0.876692
1630678990366,-0.07686,0.457256,0.877485
1630678990375,-0.076372,0.457012,0.876814
1630678990385,-0.078324,0.45975699999999997,0.8781559999999999
1630678990395,-0.078934,0.461099,0.8784
1630678990404,-0.081435,0.463234,0.8775459999999999
1630678990414,-0.081862,0.465918,0.8772409999999999
1630678990423,-0.08356999999999999,0.470676,0.875289
1630678990433,-0.085217,0.47336,0.87413
1630678990443,-0.089243,0.47177399999999997,0.872239
1630678990452,-0.091988,0.473665,0.869982
1630678990462,-0.094489,0.474031,0.871263
1630678990471,-0.09436699999999999,0.481046,0.8778509999999999
1630678990481,-0.091012,0.490135,0.8906
1630678990491,-0.08295999999999999,0.47177399999999997,0.885598
1630678990500,-0.09204899999999999,0.47702,0.876875
1630678990510,-0.097722,0.480497,0.866322
1630678990519,-0.09881999999999999,0.483059,0.862601
1630678990529,-0.098332,0.48007,0.86437
1630678990539,-0.101565,0.476776,0.861869
1630678990548,-0.101016,0.473177,0.857904
1630678990558,-0.099125,0.468541,0.851621
1630678990567,-0.096685,0.47214,0.860893
1630678990577,-0.092964,0.47238399999999997,0.869311
1630678990587,-0.09265899999999999,0.475068,0.873154
1630678990596,-0.09394,0.475678,0.8714459999999999
1630678990606,-0.093757,0.475007,0.869128
1630678990615,-0.093574,0.47695899999999997,0.868213
1630678990625,-0.09516,0.478362,0.865712
1630678990635,-0.096136,0.476227,0.866566
1630678990644,-0.094611,0.473543,0.868152
1630678990654,-0.09436699999999999,0.474763,0.867115
1630678990663,-0.095526,0.47451899999999997,0.865468
1630678990673,-0.09558699999999999,0.476288,0.866749
1630678990683,-0.095038,0.477386,0.868884
1630678990692,-0.096014,0.476776,0.868701
1630678990702,-0.098088,0.47634899999999997,0.86681
1630678990711,-0.100345,0.477325,0.866139
1630678990721,-0.101626,0.477081,0.867664
1630678990731,-0.099674,0.474946,0.870104
1630678990740,-0.099003,0.47665399999999997,0.8723
1630678990750,-0.100711,0.481107,0.8732759999999999
1630678990759,-0.100345,0.48373,0.871873
1630678990769,-0.101077,0.48348599999999997,0.869982
1630678990779,-0.102541,0.481961,0.867481
1630678990788,-0.101382,0.48031399999999996,0.866078
1630678990798,-0.103578,0.479826,0.862418
1630678990807,-0.102785,0.480253,0.861076
1630678990817,-0.102541,0.480253,0.861869
1630678990827,-0.101077,0.47970399999999996,0.8644919999999999
1630678990836,-0.10065,0.47756899999999997,0.865285
1630678990846,-0.100162,0.476593,0.865224
1630678990855,-0.099247,0.47695899999999997,0.865651
1630678990865,-0.098454,0.478362,0.867115
1630678990875,-0.09881999999999999,0.478118,0.86803
1630678990884,-0.098332,0.478301,0.869189
1630678990894,-0.098149,0.480863,0.869799
1630678990903,-0.09729499999999999,0.481107,0.8699209999999999
1630678990913,-0.097783,0.479643,0.8708359999999999
1630678990923,-0.097234,0.48122899999999996,0.8717509999999999
1630678990932,-0.096502,0.482144,0.871324
1630678990942,-0.098027,0.48470599999999997,0.8720559999999999
1630678990951,-0.096136,0.483547,0.869189
1630678990961,-0.096624,0.48434,0.868762
1630678990971,-0.09558699999999999,0.48434,0.869555
