timestamp,ax,ay,az
1630678967095,-0.3896484375,-0.003662109375,0.912109375
1630678967095,-0.3935546875,-0.00323486328125,0.90618896484375
1630678967110,-0.38348388671875,-0.00189208984375,0.91741943359375
1630678967173,-0.345703125,-0.002685546875,0.972412109375
1630678967173,-0.3701171875,-0.00091552734375,0.943603515625
1630678967173,-0.35723876953125,-0.003662109375,0.9627685546875
1630678967267,-0.33154296875,0.004150390625,0.98077392578125
1630678967267,-0.3203125,0.01422119140625,0.95733642578125
1630678967267,-0.32275390625,0.00872802734375,0.9776611328125
1630678967329,-0.32025146484375,0.00970458984375,0.9556884765625
1630678967329,-0.315185546875,0.01702880859375,0.91278076171875
1630678967329,-0.31646728515625,0.00384521484375,0.94744873046875
1630678967329,-0.31341552734375,0.00347900390625,0.94281005859375
1630678967344,-0.31268310546875,0.01409912109375,0.931396484375
1630678967344,-0.3143310546875,0.0179443359375,0.9228515625
1630678967391,-0.3265380859375,0.013671875,0.91815185546875
1630678967391,-0.32373046875,0.01654052734375,0.91851806640625
1630678967391,-0.32025146484375,0.01776123046875,0.90692138671875
1630678967438,-0.333251953125,0.015869140625,0.91290283203125
1630678967438,-0.328857421875,0.02020263671875,0.912841796875
1630678967469,-0.34832763671875,-0.00042724609375,0.91015625
1630678967469,-0.3409423828125,0.00537109375,0.92236328125
1630678967469,-0.343017578125,0.0010986328125,0.92242431640625
1630678967548,-0.350341796875,-0.00335693359375,0.92041015625
1630678967548,-0.3507080078125,0.00244140625,0.9014892578125
1630678967548,-0.3519287109375,0.0032958984375,0.9027099609375
1630678967628,-0.3480224609375,-0.00958251953125,0.9512939453125
1630678967628,-0.33795166015625,-0.012451171875,0.965087890625
1630678967628,-0.34686279296875,-0.010986328125,0.962158203125
1630678967674,-0.33880615234375,-0.01141357421875,0.96923828125
1630678967674,-0.332763671875,-0.00946044921875,0.96197509765625
1630678967674,-0.33819580078125,-0.010986328125,0.95654296875
1630678967737,-0.33050537109375,-0.003173828125,0.95013427734375
1630678967737,-0.3321533203125,-0.0037841796875,0.94830322265625
1630678967737,-0.32952880859375,0.00421142578125,0.9432373046875
1630678967815,-0.32391357421875,0.00732421875,0.93988037109375
1630678967815,-0.31451416015625,0.0091552734375,0.93719482421875
1630678967815,-0.32061767578125,0.01043701171875,0.93914794921875
1630678967862,-0.30596923828125,0.0159912109375,0.94293212890625
1630678967862,-0.3067626953125,0.01739501953125,0.94610595703125
1630678967862,-0.3070068359375,0.015625,0.93890380859375
1630678967893,-0.2950439453125,0.00830078125,0.932373046875
1630678967893,-0.29791259765625,0.00616455078125,0.94134521484375
1630678967893,-0.3006591796875,0.0079345703125,0.94891357421875
1630678967956,-0.29193115234375,0.01123046875,0.9329833984375
1630678967956,-0.29254150390625,0.00872802734375,0.92974853515625
1630678967956,-0.29168701171875,0.01251220703125,0.93426513671875
1630678968018,-0.2877197265625,0.00384521484375,0.9566650390625
1630678968018,-0.28729248046875,0.00494384765625,0.94512939453125
1630678968018,-0.28790283203125,0.0020751953125,0.9622802734375
1630678968174,-0.28863525390625,0.00140380859375,0.9571533203125
1630678968174,-0.28411865234375,0.00439453125,0.96405029296875
1630678968174,-0.28131103515625,-0.00067138671875,0.951171875
1630678968174,-0.3031005859375,-0.0013427734375,0.95477294921875
1630678968174,-0.2996826171875,0.00054931640625,0.97967529296875
1630678968174,-0.30621337890625,-0.0028076171875,0.9566650390625
1630678968221,-0.31689453125,0.0018310546875,0.93408203125
1630678968221,-0.3126220703125,0.00177001953125,0.9429931640625
1630678968221,-0.31561279296875,0.0030517578125,0.93994140625
1630678968346,-0.32977294921875,0.00341796875,0.93023681640625
1630678968362,-0.3260498046875,-0.00054931640625,0.9312744140625
1630678968362,-0.32421875,0.00146484375,0.9322509765625
1630678968393,-0.3280029296875,0.008544921875,0.94573974609375
1630678968393,-0.33154296875,0.00762939453125,0.933837890625
1630678968393,-0.32080078125,0.00738525390625,0.958251953125
1630678968424,-0.2919921875,0.01123046875,0.97161865234375
1630678968424,-0.29547119140625,0.00970458984375,0.99005126953125
1630678968424,-0.29656982421875,0.0133056640625,0.95977783203125
1630678968424,-0.30120849609375,0.00396728515625,0.99481201171875
1630678968424,-0.31219482421875,0.00506591796875,0.9837646484375
1630678968424,-0.29400634765625,0.01239013671875,0.969482421875
1630678968565,-0.29852294921875,0.01220703125,0.95111083984375
1630678968565,-0.3057861328125,0.008544921875,0.95098876953125
1630678968565,-0.296875,0.0164794921875,0.951904296875
1630678968596,-0.32330322265625,-0.00567626953125,0.9146728515625
1630678968612,-0.31256103515625,0.0035400390625,0.93994140625
1630678968612,-0.31591796875,-0.00567626953125,0.93060302734375
1630678968627,-0.32952880859375,-0.00079345703125,0.901611328125
1630678968644,-0.34039306640625,0.00042724609375,0.89306640625
1630678968661,-0.3546142578125,-0.0133056640625,0.89276123046875
1630678968677,-0.34869384765625,-0.0084228515625,0.89324951171875
1630678968677,-0.35040283203125,-0.02056884765625,0.90533447265625
1630678968708,-0.34906005859375,-0.0184326171875,0.90777587890625
1630678968708,-0.3465576171875,-0.03814697265625,0.943359375
1630678968708,-0.349609375,-0.031005859375,0.9278564453125
1630678968818,-0.34222412109375,-0.067138671875,1.012939453125
1630678968818,-0.33837890625,-0.04608154296875,0.97149658203125
1630678968818,-0.3389892578125,-0.0570068359375,0.97906494140625
1630678968833,-0.33953857421875,-0.0794677734375,0.984130859375
1630678968833,-0.35009765625,-0.072509765625,1.02886962890625
1630678968849,-0.3433837890625,-0.0709228515625,0.94012451171875
1630678968911,-0.3587646484375,-0.04559326171875,0.9150390625
1630678968911,-0.35540771484375,-0.05401611328125,0.9429931640625
1630678968911,-0.34332275390625,-0.07061767578125,0.9195556640625
1630678969021,-0.4017333984375,-0.04638671875,0.88623046875
1630678969036,-0.41436767578125,-0.04754638671875,0.8232421875
1630678969036,-0.4051513671875,-0.048828125,0.856201171875
1630678969036,-0.36993408203125,-0.04541015625,0.9127197265625
1630678969036,-0.41668701171875,-0.0447998046875,0.84466552734375
1630678969036,-0.3912353515625,-0.04888916015625,0.90167236328125
1630678969114,-0.4112548828125,-0.05816650390625,0.8509521484375
1630678969130,-0.42138671875,-0.05072021484375,0.8245849609375
1630678969130,-0.41552734375,-0.0531005859375,0.821533203125
1630678969161,-0.39727783203125,-0.08160400390625,0.88482666015625
1630678969161,-0.39581298828125,-0.08721923828125,0.913818359375
1630678969161,-0.4075927734375,-0.07110595703125,0.86871337890625
1630678969192,-0.37603759765625,-0.083740234375,0.95611572265625
1630678969192,-0.38421630859375,-0.093017578125,0.93035888671875
1630678969192,-0.3792724609375,-0.09136962890625,0.93206787109375
1630678969349,-0.36651611328125,-0.081787109375,0.9595947265625
1630678969349,-0.363037109375,-0.0802001953125,0.95477294921875
1630678969349,-0.3699951171875,-0.0733642578125,0.95587158203125
1630678969364,-0.3843994140625,-0.05401611328125,0.9097900390625
1630678969364,-0.37579345703125,-0.0682373046875,0.9447021484375
1630678969364,-0.38140869140625,-0.05914306640625,0.92791748046875
1630678969396,-0.39056396484375,-0.05584716796875,0.90887451171875
1630678969396,-0.40093994140625,-0.0576171875,0.8863525390625
1630678969396,-0.39068603515625,-0.05780029296875,0.88739013671875
1630678969446,-0.3995361328125,-0.05609130859375,0.88311767578125
1630678969462,-0.40185546875,-0.0565185546875,0.889892578125
1630678969462,-0.39813232421875,-0.056884765625,0.8934326171875
1630678969555,-0.4075927734375,-0.04974365234375,0.89556884765625
1630678969555,-0.38775634765625,-0.05767822265625,0.9041748046875
1630678969555,-0.39471435546875,-0.05560302734375,0.886474609375
1630678969555,-0.3760986328125,-0.0648193359375,0.9072265625
1630678969555,-0.371826171875,-0.07916259765625,0.9217529296875
1630678969555,-0.3651123046875,-0.08441162109375,0.93084716796875
1630678969618,-0.371337890625,-0.1446533203125,0.962158203125
1630678969618,-0.36651611328125,-0.101806640625,0.92523193359375
1630678969618,-0.37591552734375,-0.15362548828125,0.99456787109375
1630678969665,-0.36883544921875,-0.15264892578125,0.97479248046875
1630678969665,-0.35504150390625,-0.1270751953125,0.947509765625
1630678969665,-0.3470458984375,-0.131103515625,0.9368896484375
1630678969743,-0.39312744140625,-0.1083984375,0.90753173828125
1630678969743,-0.42010498046875,-0.0926513671875,0.87158203125
1630678969743,-0.36114501953125,-0.12188720703125,0.91241455078125
1630678969821,-0.433837890625,-0.05145263671875,0.85614013671875
1630678969821,-0.42242431640625,-0.05584716796875,0.8663330078125
1630678969837,-0.4208984375,-0.07464599609375,0.86431884765625
1630678969899,-0.5072021484375,-0.02996826171875,0.84344482421875
1630678969899,-0.48809814453125,-0.0316162109375,0.83612060546875
1630678969899,-0.48486328125,-0.03729248046875,0.84857177734375
1630678969946,-0.47088623046875,-0.04840087890625,0.8214111328125
1630678969946,-0.5291748046875,-0.05218505859375,0.82440185546875
1630678969946,-0.50067138671875,-0.04217529296875,0.83001708984375
1630678969946,-0.4906005859375,-0.05780029296875,0.81451416015625
1630678969946,-0.46148681640625,-0.05133056640625,0.84039306640625
1630678969946,-0.51873779296875,-0.0577392578125,0.81890869140625
1630678970040,-0.53955078125,-0.0777587890625,0.8304443359375
1630678970040,-0.50909423828125,-0.06329345703125,0.8223876953125
1630678970040,-0.54718017578125,-0.08917236328125,0.8240966796875
1630678970243,-0.53790283203125,-0.08758544921875,0.82855224609375
1630678970243,-0.52862548828125,-0.08721923828125,0.78033447265625
1630678970243,-0.52264404296875,-0.08404541015625,0.8173828125
1630678970243,-0.51861572265625,-0.087890625,0.8228759765625
1630678970243,-0.51751708984375,-0.08831787109375,0.80938720703125
1630678970243,-0.51641845703125,-0.091796875,0.822509765625
1630678970243,-0.51641845703125,-0.09320068359375,0.81280517578125
1630678970243,-0.5440673828125,-0.08685302734375,0.82080078125
1630678970243,-0.51416015625,-0.09173583984375,0.82598876953125
1630678970290,-0.517822265625,-0.0946044921875,0.818359375
1630678970290,-0.51544189453125,-0.09814453125,0.82843017578125
1630678970290,-0.51483154296875,-0.0985107421875,0.82818603515625
1630678970353,-0.52581787109375,-0.09490966796875,0.8333740234375
1630678970353,-0.529052734375,-0.0914306640625,0.8221435546875
1630678970368,-0.523193359375,-0.09930419921875,0.83038330078125
1630678970384,-0.53155517578125,-0.08880615234375,0.81304931640625
1630678970399,-0.53851318359375,-0.09039306640625,0.820068359375
1630678970399,-0.53741455078125,-0.08978271484375,0.8297119140625
1630678970415,-0.5233154296875,-0.09234619140625,0.83502197265625
1630678970415,-0.5294189453125,-0.08880615234375,0.82611083984375
1630678970415,-0.51116943359375,-0.09832763671875,0.836669921875
1630678970478,-0.526611328125,-0.0924072265625,0.83087158203125
1630678970478,-0.51458740234375,-0.093994140625,0.83221435546875
1630678970478,-0.52178955078125,-0.08905029296875,0.8245849609375
1630678970556,-0.52203369140625,-0.086669921875,0.82745361328125
1630678970556,-0.52056884765625,-0.0948486328125,0.8236083984375
1630678970556,-0.52880859375,-0.09442138671875,0.82763671875
1630678970712,-0.51800537109375,-0.09503173828125,0.80731201171875
1630678970712,-0.548095703125,-0.0975341796875,0.8194580078125
1630678970712,-0.55242919921875,-0.10369873046875,0.86029052734375
1630678970728,-0.52313232421875,-0.09429931640625,0.830810546875
1630678970728,-0.526123046875,-0.09417724609375,0.83563232421875
1630678970728,-0.5247802734375,-0.10736083984375,0.8424072265625
1630678970774,-0.5263671875,-0.10400390625,0.8355712890625
1630678970774,-0.477783203125,-0.100830078125,0.8387451171875
1630678970774,-0.49920654296875,-0.09881591796875,0.83392333984375
1630678970853,-0.5032958984375,-0.10882568359375,0.873779296875
1630678970853,-0.51654052734375,-0.073974609375,0.833251953125
1630678970853,-0.51080322265625,-0.11572265625,0.8643798828125
1630678970853,-0.5379638671875,-0.099853515625,0.8514404296875
1630678970853,-0.52166748046875,-0.12432861328125,0.85308837890625
1630678970853,-0.52557373046875,-0.116455078125,0.85052490234375
1630678970962,-0.531005859375,-0.06134033203125,0.78521728515625
1630678970962,-0.5477294921875,-0.0567626953125,0.76727294921875
1630678970962,-0.54541015625,-0.05902099609375,0.77679443359375
1630678971009,-0.589599609375,-0.045166015625,0.807861328125
1630678971009,-0.56781005859375,-0.04150390625,0.80596923828125
1630678971009,-0.541748046875,-0.0364990234375,0.76226806640625
1630678971071,-0.5643310546875,-0.0443115234375,0.79302978515625
1630678971071,-0.55413818359375,-0.05865478515625,0.80511474609375
1630678971071,-0.562255859375,-0.05487060546875,0.79736328125
1630678971134,-0.54779052734375,-0.0709228515625,0.7958984375
1630678971134,-0.55438232421875,-0.06817626953125,0.79034423828125
1630678971134,-0.54840087890625,-0.07208251953125,0.7967529296875
1630678971165,-0.5693359375,-0.09259033203125,0.76715087890625
1630678971165,-0.5723876953125,-0.0819091796875,0.82598876953125
1630678971165,-0.55584716796875,-0.08563232421875,0.8134765625
1630678971306,-0.56695556640625,-0.0902099609375,0.82269287109375
1630678971306,-0.55096435546875,-0.08782958984375,0.8330078125
1630678971306,-0.5693359375,-0.0843505859375,0.84808349609375
1630678971462,-0.5521240234375,-0.08892822265625,0.82403564453125
1630678971462,-0.546142578125,-0.09417724609375,0.81964111328125
1630678971462,-0.54803466796875,-0.09771728515625,0.80902099609375
1630678971493,-0.54541015625,-0.0953369140625,0.8565673828125
1630678971493,-0.5594482421875,-0.085205078125,0.78759765625
1630678971512,-0.56072998046875,-0.080078125,0.796630859375
1630678971527,-0.56353759765625,-0.08245849609375,0.7939453125
1630678971527,-0.56622314453125,-0.07733154296875,0.792724609375
1630678971527,-0.55828857421875,-0.081298828125,0.79180908203125
1630678971574,-0.57757568359375,-0.0712890625,0.7969970703125
1630678971574,-0.5682373046875,-0.078857421875,0.79779052734375
1630678971574,-0.57861328125,-0.06854248046875,0.80670166015625
1630678971744,-0.55694580078125,-0.0665283203125,0.7913818359375
1630678971744,-0.57464599609375,-0.0523681640625,0.8070068359375
1630678971744,-0.56182861328125,-0.05230712890625,0.79254150390625
1630678971744,-0.56549072265625,-0.05413818359375,0.79425048828125
1630678971744,-0.57733154296875,-0.02935791015625,0.7987060546875
1630678971759,-0.575439453125,-0.03558349609375,0.79095458984375
1630678971759,-0.57171630859375,-0.059326171875,0.76983642578125
1630678971759,-0.5634765625,-0.0301513671875,0.79473876953125
1630678971759,-0.56561279296875,-0.05364990234375,0.79095458984375
1630678971884,-0.55975341796875,-0.0107421875,0.799072265625
1630678971884,-0.56634521484375,-0.01934814453125,0.79681396484375
1630678971884,-0.5648193359375,-0.02313232421875,0.8001708984375
1630678971884,-0.5726318359375,-0.01885986328125,0.79632568359375
1630678971884,-0.56317138671875,-0.01593017578125,0.809326171875
1630678971884,-0.55340576171875,-0.01666259765625,0.800048828125
1630678971916,-0.55987548828125,-0.0308837890625,0.8052978515625
1630678971916,-0.564453125,-0.018798828125,0.79827880859375
1630678971916,-0.5382080078125,-0.04229736328125,0.80609130859375
1630678971916,-0.52838134765625,-0.05047607421875,0.8155517578125
1630678971916,-0.52935791015625,-0.05438232421875,0.83154296875
1630678971916,-0.5577392578125,-0.01202392578125,0.8084716796875
1630678972009,-0.5308837890625,-0.058349609375,0.845947265625
1630678972009,-0.52569580078125,-0.05584716796875,0.846923828125
1630678972009,-0.52532958984375,-0.0650634765625,0.8427734375
1630678972056,-0.51953125,-0.0511474609375,0.838134765625
1630678972056,-0.503662109375,-0.02923583984375,0.834228515625
1630678972056,-0.51116943359375,-0.0400390625,0.83758544921875
1630678972103,-0.50054931640625,-0.025634765625,0.8355712890625
1630678972103,-0.49676513671875,-0.03521728515625,0.866455078125
1630678972103,-0.49700927734375,-0.04248046875,0.86602783203125
1630678972134,-0.49432373046875,-0.035888671875,0.8653564453125
1630678972134,-0.4974365234375,-0.04010009765625,0.8719482421875
1630678972134,-0.49755859375,-0.03887939453125,0.860595703125
1630678972181,-0.49322509765625,-0.03924560546875,0.86871337890625
1630678972181,-0.49505615234375,-0.03314208984375,0.865966796875
1630678972181,-0.4932861328125,-0.036865234375,0.86541748046875
1630678972244,-0.50091552734375,-0.0386962890625,0.85943603515625
1630678972244,-0.4991455078125,-0.03704833984375,0.8575439453125
1630678972259,-0.50067138671875,-0.0372314453125,0.85931396484375
1630678972275,-0.50079345703125,-0.04095458984375,0.85955810546875
1630678972275,-0.50433349609375,-0.044921875,0.8511962890625
1630678972275,-0.50860595703125,-0.04638671875,0.84600830078125
1630678972322,-0.51300048828125,-0.03863525390625,0.840576171875
1630678972322,-0.513427734375,-0.03802490234375,0.8375244140625
1630678972322,-0.50469970703125,-0.0374755859375,0.84173583984375
1630678972369,-0.513916015625,-0.0355224609375,0.8408203125
1630678972369,-0.51397705078125,-0.0333251953125,0.8321533203125
1630678972369,-0.51007080078125,-0.037841796875,0.84075927734375
1630678972416,-0.51416015625,-0.04998779296875,0.84429931640625
1630678972416,-0.515869140625,-0.0516357421875,0.8377685546875
1630678972416,-0.5133056640625,-0.0426025390625,0.8441162109375
1630678972528,-0.515625,-0.05938720703125,0.83636474609375
1630678972528,-0.52032470703125,-0.06561279296875,0.8402099609375
1630678972528,-0.52081298828125,-0.0750732421875,0.84344482421875
1630678972606,-0.52435302734375,-0.07171630859375,0.83599853515625
1630678972606,-0.52581787109375,-0.07562255859375,0.8265380859375
1630678972606,-0.5228271484375,-0.07421875,0.84588623046875
1630678972622,-0.535400390625,-0.069091796875,0.810791015625
1630678972622,-0.5338134765625,-0.075439453125,0.82269287109375
1630678972622,-0.52484130859375,-0.07440185546875,0.8211669921875
1630678972700,-0.5401611328125,-0.0750732421875,0.81951904296875
1630678972700,-0.53460693359375,-0.067138671875,0.81463623046875
1630678972716,-0.53387451171875,-0.0655517578125,0.80267333984375
1630678972716,-0.54486083984375,-0.07684326171875,0.82537841796875
1630678972716,-0.537353515625,-0.07012939453125,0.82623291015625
1630678972794,-0.54351806640625,-0.0751953125,0.81219482421875
1630678972794,-0.55072021484375,-0.07342529296875,0.80767822265625
1630678972794,-0.545166015625,-0.07275390625,0.8135986328125
1630678972934,-0.54705810546875,-0.07611083984375,0.8062744140625
1630678972934,-0.55133056640625,-0.06707763671875,0.80389404296875
1630678972934,-0.55072021484375,-0.071044921875,0.80279541015625
1630678972934,-0.54656982421875,-0.077880859375,0.81927490234375
1630678972934,-0.5523681640625,-0.0738525390625,0.80194091796875
1630678972934,-0.5479736328125,-0.0770263671875,0.80615234375
1630678972997,-0.54779052734375,-0.0667724609375,0.8203125
1630678972997,-0.5517578125,-0.064453125,0.81781005859375
1630678972997,-0.55194091796875,-0.063720703125,0.8028564453125
1630678973013,-0.54779052734375,-0.06231689453125,0.8109130859375
1630678973013,-0.54290771484375,-0.0660400390625,0.81097412109375
1630678973013,-0.54949951171875,-0.062255859375,0.80877685546875
1630678973106,-0.5465087890625,-0.06060791015625,0.81683349609375
1630678973106,-0.54681396484375,-0.06036376953125,0.81805419921875
1630678973106,-0.54620361328125,-0.06060791015625,0.80999755859375
1630678973153,-0.542236328125,-0.063720703125,0.81884765625
1630678973153,-0.544677734375,-0.06353759765625,0.81890869140625
1630678973153,-0.543701171875,-0.0654296875,0.810546875
1630678973184,-0.54443359375,-0.06927490234375,0.82281494140625
1630678973184,-0.54620361328125,-0.06640625,0.824951171875
1630678973184,-0.5439453125,-0.06524658203125,0.82830810546875
1630678973294,-0.538818359375,-0.058349609375,0.813720703125
1630678973294,-0.53973388671875,-0.06158447265625,0.81585693359375
1630678973294,-0.54241943359375,-0.06671142578125,0.8206787109375
1630678973388,-0.54156494140625,-0.05230712890625,0.8253173828125
1630678973388,-0.5372314453125,-0.05987548828125,0.8194580078125
1630678973388,-0.537353515625,-0.06121826171875,0.82269287109375
1630678973419,-0.5374755859375,-0.0584716796875,0.81597900390625
1630678973419,-0.539306640625,-0.05560302734375,0.82177734375
1630678973419,-0.543701171875,-0.0601806640625,0.823974609375
1630678973450,-0.54510498046875,-0.052978515625,0.78472900390625
1630678973450,-0.5465087890625,-0.0472412109375,0.7490234375
1630678973450,-0.5472412109375,-0.0548095703125,0.80169677734375
1630678973466,-0.53955078125,-0.03570556640625,0.70355224609375
1630678973466,-0.53033447265625,-0.019287109375,0.67962646484375
1630678973466,-0.52960205078125,-0.00537109375,0.6995849609375
1630678973563,-0.51043701171875,-0.07073974609375,0.9840087890625
1630678973563,-0.54107666015625,0.0025634765625,0.81060791015625
1630678973563,-0.52984619140625,-0.03497314453125,0.88818359375
1630678973751,-0.444580078125,-0.06964111328125,0.9100341796875
1630678973751,-0.47735595703125,-0.1015625,1.0439453125
1630678973751,-0.4381103515625,-0.0911865234375,1.018310546875
1630678973751,-0.43756103515625,-0.10260009765625,1.02227783203125
1630678973751,-0.45269775390625,-0.11004638671875,1.0460205078125
1630678973751,-0.43212890625,-0.08251953125,0.98834228515625
1630678973844,-0.4866943359375,-0.0628662109375,0.7960205078125
1630678973844,-0.53155517578125,-0.0718994140625,0.72247314453125
1630678973844,-0.505126953125,-0.0662841796875,0.77313232421875
1630678973844,-0.46136474609375,-0.06072998046875,0.8499755859375
1630678973844,-0.5205078125,-0.07232666015625,0.7459716796875
1630678973844,-0.54180908203125,-0.06549072265625,0.72882080078125
1630678973876,-0.535888671875,-0.0396728515625,0.70623779296875
1630678973876,-0.539306640625,-0.0474853515625,0.7056884765625
1630678973876,-0.5430908203125,-0.0587158203125,0.7178955078125
1630678973969,-0.51904296875,-0.021728515625,0.8564453125
1630678973969,-0.5423583984375,-0.017578125,0.74346923828125
1630678973969,-0.5352783203125,-0.01361083984375,0.83306884765625
1630678974047,-0.49371337890625,-0.0478515625,0.89520263671875
1630678974047,-0.480224609375,-0.0589599609375,0.893798828125
1630678974141,-0.45404052734375,-0.05633544921875,0.954833984375
1630678974141,-0.4478759765625,-0.05523681640625,0.9891357421875
1630678974188,-0.4605712890625,-0.05810546875,0.9268798828125
1630678974188,-0.47772216796875,-0.0538330078125,0.87542724609375
1630678974188,-0.470703125,-0.056396484375,0.89776611328125
1630678974251,-0.49188232421875,-0.05560302734375,0.84661865234375
1630678974251,-0.49786376953125,-0.06243896484375,0.83148193359375
1630678974251,-0.4842529296875,-0.05499267578125,0.85888671875
1630678974376,-0.49798583984375,-0.0574951171875,0.8157958984375
1630678974376,-0.49884033203125,-0.04315185546875,0.79803466796875
1630678974376,-0.4979248046875,-0.0281982421875,0.79229736328125
1630678974407,-0.460205078125,-0.00811767578125,0.86651611328125
1630678974407,-0.50115966796875,-0.01544189453125,0.80133056640625
1630678974407,-0.4783935546875,-0.00616455078125,0.83795166015625
1630678974407,-0.48956298828125,-0.005615234375,0.849609375
1630678974407,-0.49713134765625,-0.0074462890625,0.826416015625
1630678974407,-0.4676513671875,-0.00482177734375,0.85809326171875
1630678974517,-0.449951171875,-0.01458740234375,0.88116455078125
1630678974517,-0.44091796875,-0.02520751953125,0.91693115234375
1630678974517,-0.44287109375,-0.0181884765625,0.8936767578125
1630678974548,-0.43914794921875,-0.04071044921875,0.9229736328125
1630678974548,-0.44232177734375,-0.037109375,0.930419921875
1630678974548,-0.43865966796875,-0.02978515625,0.91943359375
1630678974597,-0.44439697265625,-0.033935546875,0.9007568359375
1630678974597,-0.44183349609375,-0.041259765625,0.91351318359375
1630678974597,-0.4525146484375,-0.028564453125,0.890625
1630678974675,-0.4605712890625,-0.017333984375,0.86334228515625
1630678974675,-0.4552001953125,-0.0203857421875,0.88067626953125
1630678974675,-0.457275390625,-0.01959228515625,0.8717041015625
1630678974847,-0.46466064453125,-0.01593017578125,0.8526611328125
1630678974847,-0.46002197265625,-0.01055908203125,0.85479736328125
1630678974847,-0.46484375,-0.0128173828125,0.85009765625
1630678975019,-0.4566650390625,-0.00360107421875,0.88067626953125
1630678975019,-0.46160888671875,-0.00732421875,0.85247802734375
1630678975019,-0.4578857421875,-0.00042724609375,0.87005615234375
1630678975113,-0.4482421875,-0.00848388671875,0.89312744140625
1630678975113,-0.446533203125,-0.00482177734375,0.89678955078125
1630678975113,-0.44317626953125,-0.00048828125,0.89617919921875
1630678975207,-0.4449462890625,0.00103759765625,0.8963623046875
1630678975207,-0.44207763671875,-0.0054931640625,0.888671875
1630678975222,-0.4425048828125,-0.00634765625,0.891357421875
1630678975238,-0.4515380859375,-0.02203369140625,0.88726806640625
1630678975238,-0.44378662109375,-0.01611328125,0.89019775390625
1630678975238,-0.446044921875,-0.01104736328125,0.89569091796875
1630678975347,-0.45318603515625,-0.0096435546875,0.87640380859375
1630678975347,-0.461669921875,-0.0120849609375,0.869384765625
1630678975347,-0.451416015625,-0.0126953125,0.8848876953125
1630678975425,-0.4654541015625,-0.00909423828125,0.8585205078125
1630678975425,-0.4608154296875,-0.00897216796875,0.87066650390625
1630678975425,-0.461181640625,-0.00994873046875,0.86895751953125
1630678975441,-0.464111328125,-0.02044677734375,0.87213134765625
1630678975441,-0.4638671875,-0.01251220703125,0.8646240234375
1630678975441,-0.462158203125,-0.01800537109375,0.87396240234375
1630678975472,-0.4658203125,-0.01629638671875,0.85284423828125
1630678975472,-0.4664306640625,-0.0146484375,0.87127685546875
1630678975472,-0.4627685546875,-0.0123291015625,0.8519287109375
1630678975472,-0.46875,-0.01910400390625,0.87615966796875
1630678975472,-0.46563720703125,-0.01580810546875,0.88482666015625
1630678975472,-0.46563720703125,-0.01361083984375,0.8853759765625
1630678975613,-0.45098876953125,-0.02716064453125,0.89080810546875
1630678975613,-0.45281982421875,-0.0380859375,0.88763427734375
1630678975613,-0.45513916015625,-0.03399658203125,0.88323974609375
1630678975662,-0.45172119140625,-0.0169677734375,0.89373779296875
1630678975662,-0.46014404296875,0.00390625,0.88836669921875
1630678975662,-0.4542236328125,-0.006591796875,0.8817138671875
1630678975771,-0.46826171875,0.00360107421875,0.870361328125
1630678975771,-0.46722412109375,0.0052490234375,0.87841796875
1630678975787,-0.470703125,0.0028076171875,0.8629150390625
1630678975802,-0.4801025390625,0.001708984375,0.8590087890625
1630678975802,-0.4852294921875,0.010498046875,0.858642578125
1630678975802,-0.47613525390625,-0.00140380859375,0.8599853515625
1630678975802,-0.4796142578125,0.00103759765625,0.85650634765625
1630678975802,-0.4818115234375,0.0037841796875,0.86492919921875
1630678975818,-0.47503662109375,0.0010986328125,0.86199951171875
1630678975896,-0.4847412109375,0.00811767578125,0.855224609375
1630678975896,-0.4805908203125,0.01361083984375,0.85491943359375
1630678975896,-0.4837646484375,0.00921630859375,0.85028076171875
1630678976052,-0.46807861328125,-0.00347900390625,0.87200927734375
1630678976052,-0.47003173828125,-0.00030517578125,0.87188720703125
1630678976052,-0.470458984375,-0.009033203125,0.8760986328125
1630678976068,-0.4779052734375,0.01092529296875,0.8548583984375
1630678976068,-0.47747802734375,0.014892578125,0.85821533203125
1630678976068,-0.4830322265625,0.0113525390625,0.8553466796875
1630678976068,-0.474365234375,0.00518798828125,0.85845947265625
1630678976068,-0.4765625,0.012939453125,0.8575439453125
1630678976068,-0.472900390625,0.00360107421875,0.86181640625
1630678976193,-0.46990966796875,-0.0174560546875,0.87591552734375
1630678976208,-0.46917724609375,-0.01092529296875,0.86810302734375
1630678976208,-0.467041015625,-0.01519775390625,0.8726806640625
1630678976287,-0.46478271484375,-0.0045166015625,0.8746337890625
1630678976287,-0.46441650390625,-0.00494384765625,0.86822509765625
1630678976287,-0.463623046875,-0.00531005859375,0.8741455078125
1630678976318,-0.4688720703125,0.000732421875,0.8677978515625
1630678976318,-0.468017578125,-0.0010986328125,0.87091064453125
1630678976333,-0.46734619140625,-0.0029296875,0.867919921875
1630678976333,-0.46630859375,-0.00311279296875,0.87347412109375
1630678976333,-0.4671630859375,-0.00604248046875,0.8675537109375
1630678976333,-0.46636962890625,-0.007568359375,0.8726806640625
1630678976365,-0.47369384765625,0.00933837890625,0.8701171875
1630678976365,-0.46673583984375,0.0159912109375,0.9022216796875
1630678976365,-0.4716796875,0.01287841796875,0.88165283203125
1630678976365,-0.4720458984375,0.00537109375,0.8692626953125
1630678976365,-0.47357177734375,0.00616455078125,0.8668212890625
1630678976365,-0.47314453125,0.00775146484375,0.86572265625
1630678976427,-0.46051025390625,-0.00262451171875,0.9688720703125
1630678976427,-0.45538330078125,-0.0101318359375,0.9837646484375
1630678976427,-0.46295166015625,0.0067138671875,0.93719482421875
1630678976474,-0.4517822265625,-0.01422119140625,0.95709228515625
1630678976474,-0.4703369140625,-0.010986328125,0.928466796875
1630678976474,-0.45159912109375,-0.0123291015625,0.98858642578125
1630678976521,-0.484619140625,-0.0115966796875,0.8587646484375
1630678976521,-0.50408935546875,-0.02191162109375,0.78173828125
1630678976521,-0.48052978515625,-0.02044677734375,0.82659912109375
1630678976712,-0.55621337890625,-0.02740478515625,0.75775146484375
1630678976728,-0.557373046875,-0.0321044921875,0.7449951171875
1630678976728,-0.5584716796875,-0.0245361328125,0.6920166015625
1630678976743,-0.58099365234375,0.00677490234375,0.66156005859375
1630678976743,-0.57757568359375,-0.00970458984375,0.6766357421875
1630678976759,-0.57861328125,0.01837158203125,0.662353515625
1630678976806,-0.57220458984375,0.0281982421875,0.7236328125
1630678976806,-0.5765380859375,0.0311279296875,0.75750732421875
1630678976806,-0.56903076171875,0.02899169921875,0.64788818359375
1630678976868,-0.482666015625,0.02044677734375,0.90142822265625
1630678976868,-0.573974609375,0.03057861328125,0.80474853515625
1630678976868,-0.48663330078125,0.02008056640625,0.8873291015625
1630678976868,-0.5164794921875,0.04254150390625,0.86419677734375
1630678976868,-0.4881591796875,0.02813720703125,0.87255859375
1630678976868,-0.56103515625,0.041259765625,0.83721923828125
1630678976868,-0.464111328125,0.01727294921875,0.89874267578125
1630678976868,-0.5162353515625,0.0335693359375,0.86383056640625
1630678976868,-0.552001953125,0.03826904296875,0.8438720703125
1630678977009,-0.4578857421875,0.0169677734375,0.90423583984375
1630678977009,-0.46929931640625,0.01397705078125,0.91192626953125
1630678977009,-0.4642333984375,0.0159912109375,0.91070556640625
1630678977040,-0.43670654296875,0.0152587890625,0.89678955078125
1630678977040,-0.45086669921875,0.01470947265625,0.89154052734375
1630678977040,-0.4564208984375,0.01861572265625,0.9063720703125
1630678977150,-0.4063720703125,0.0162353515625,0.9412841796875
1630678977150,-0.40185546875,0.0213623046875,0.90826416015625
1630678977150,-0.41845703125,0.02264404296875,0.9415283203125
1630678977150,-0.40362548828125,0.0223388671875,0.94024658203125
1630678977165,-0.42718505859375,0.021240234375,0.90234375
1630678977165,-0.43798828125,0.018798828125,0.89691162109375
1630678977368,-0.41552734375,0.03363037109375,0.86907958984375
1630678977368,-0.4091796875,0.02508544921875,0.88519287109375
1630678977368,-0.4071044921875,0.0238037109375,0.8988037109375
1630678977400,-0.4185791015625,0.0341796875,0.8533935546875
1630678977400,-0.42864990234375,0.03448486328125,0.84454345703125
1630678977400,-0.43377685546875,0.03173828125,0.84326171875
1630678977603,-0.4290771484375,0.0098876953125,0.88665771484375
1630678977603,-0.431396484375,0.0223388671875,0.86016845703125
1630678977603,-0.42730712890625,0.01519775390625,0.8721923828125
1630678977668,-0.42022705078125,-0.00201416015625,0.939208984375
1630678977668,-0.41851806640625,-0.001220703125,0.93499755859375
1630678977684,-0.425048828125,0.00152587890625,0.9117431640625
1630678977730,-0.4146728515625,0.00457763671875,0.91229248046875
1630678977730,-0.419921875,0.0052490234375,0.90802001953125
1630678977730,-0.4130859375,0.0013427734375,0.9254150390625
1630678977949,-0.43267822265625,0.00213623046875,0.89886474609375
1630678977949,-0.43096923828125,0.0029296875,0.89910888671875
1630678977949,-0.4256591796875,0.004638671875,0.900634765625
1630678978074,-0.42962646484375,0.00848388671875,0.90631103515625
1630678978074,-0.4248046875,0.0181884765625,0.9127197265625
1630678978074,-0.433349609375,0.01776123046875,0.90924072265625
1630678978105,-0.41864013671875,0.0294189453125,0.8934326171875
1630678978105,-0.42022705078125,0.0311279296875,0.8828125
1630678978105,-0.4195556640625,0.02734375,0.898681640625
1630678978340,-0.421875,0.03619384765625,0.875
1630678978340,-0.42437744140625,0.03265380859375,0.8673095703125
1630678978340,-0.42205810546875,0.03350830078125,0.88214111328125
1630678978371,-0.4229736328125,0.0335693359375,0.87200927734375
1630678978371,-0.42498779296875,0.02911376953125,0.86419677734375
1630678978371,-0.4232177734375,0.0382080078125,0.87677001953125
1630678978433,-0.41259765625,0.02520751953125,0.93218994140625
1630678978433,-0.41815185546875,0.02777099609375,0.9228515625
1630678978433,-0.4144287109375,0.0263671875,0.93927001953125
1630678978542,-0.43719482421875,0.01556396484375,0.87646484375
1630678978542,-0.44342041015625,0.0191650390625,0.866943359375
1630678978542,-0.434814453125,0.01739501953125,0.882080078125
1630678978827,-0.44561767578125,0.015869140625,0.85870361328125
1630678978827,-0.45318603515625,0.0218505859375,0.85333251953125
1630678978842,-0.4552001953125,0.02264404296875,0.84979248046875
1630678978999,-0.4346923828125,0.020751953125,0.8997802734375
1630678978999,-0.4261474609375,0.01824951171875,0.9154052734375
1630678978999,-0.43731689453125,0.017333984375,0.87957763671875
1630678979030,-0.41259765625,0.01904296875,0.9320068359375
1630678979030,-0.4122314453125,0.02044677734375,0.9371337890625
1630678979030,-0.41595458984375,0.02093505859375,0.9283447265625
1630678979092,-0.4381103515625,0.02191162109375,0.8695068359375
1630678979092,-0.4476318359375,0.0244140625,0.872314453125
1630678979092,-0.446533203125,0.0257568359375,0.8594970703125
1630678979264,-0.4365234375,0.011962890625,0.9053955078125
1630678979264,-0.453857421875,0.03564453125,0.868896484375
1630678979264,-0.45098876953125,0.0196533203125,0.8468017578125
1630678979264,-0.44659423828125,0.025390625,0.8675537109375
1630678979264,-0.4468994140625,0.02783203125,0.8544921875
1630678979264,-0.4508056640625,0.03094482421875,0.86761474609375
1630678979327,-0.4599609375,0.00811767578125,0.89093017578125
1630678979342,-0.430908203125,0.00830078125,0.880859375
1630678979342,-0.42071533203125,0.012939453125,0.88232421875
1630678979563,-0.47216796875,0.02569580078125,0.88067626953125
1630678979579,-0.43115234375,0.0263671875,0.87432861328125
1630678979579,-0.519287109375,0.02978515625,0.86895751953125
1630678979657,-0.40966796875,0.00762939453125,0.89776611328125
1630678979657,-0.43402099609375,0.0062255859375,0.8857421875
1630678979657,-0.447998046875,0.01239013671875,0.89593505859375
1630678979672,-0.470458984375,0.01202392578125,0.885498046875
1630678979672,-0.42523193359375,0.02593994140625,0.88482666015625
1630678979672,-0.45684814453125,0.02099609375,0.88653564453125
1630678979735,-0.43585205078125,0.0010986328125,0.89874267578125
1630678979735,-0.4705810546875,0.001220703125,0.86834716796875
1630678979735,-0.44097900390625,0.01055908203125,0.8922119140625
1630678979735,-0.44964599609375,0.0096435546875,0.9031982421875
1630678979735,-0.50506591796875,-0.0025634765625,0.8785400390625
1630678979735,-0.46429443359375,0.0003662109375,0.8389892578125
1630678979829,-0.4466552734375,-0.0010986328125,0.8887939453125
1630678979829,-0.44873046875,0.00018310546875,0.87249755859375
1630678979829,-0.44891357421875,-0.00482177734375,0.88262939453125
1630678979875,-0.40960693359375,-0.01007080078125,0.87109375
1630678979875,-0.41351318359375,-0.0113525390625,0.87823486328125
1630678979875,-0.53973388671875,-0.0213623046875,0.868408203125
1630678979875,-0.476318359375,-0.01373291015625,0.87713623046875
1630678979875,-0.42254638671875,-0.01300048828125,0.89697265625
1630678979875,-0.4710693359375,-0.0147705078125,0.86273193359375
1630678979875,-0.4451904296875,-0.0150146484375,0.8817138671875
1630678979875,-0.43817138671875,-0.01251220703125,0.86669921875
1630678979875,-0.44622802734375,-0.0035400390625,0.88665771484375
1630678979985,-0.4552001953125,-0.00787353515625,0.87451171875
1630678979985,-0.44000244140625,-0.00701904296875,0.8858642578125
1630678979985,-0.46612548828125,-0.01422119140625,0.8572998046875
1630678980016,-0.42462158203125,-0.04266357421875,0.898681640625
1630678980016,-0.435546875,-0.0489501953125,0.9051513671875
1630678980016,-0.4324951171875,-0.04388427734375,0.92108154296875
1630678980063,-0.46435546875,-0.04766845703125,0.85943603515625
1630678980063,-0.45562744140625,-0.06304931640625,0.85009765625
1630678980094,-0.47235107421875,-0.0469970703125,0.853759765625
1630678980094,-0.4622802734375,-0.04217529296875,0.85162353515625
1630678980094,-0.46868896484375,-0.04132080078125,0.85784912109375
1630678980125,-0.48333740234375,-0.04632568359375,0.86212158203125
1630678980125,-0.4915771484375,-0.03143310546875,0.88775634765625
1630678980125,-0.47930908203125,-0.05621337890625,0.85943603515625
1630678980157,-0.489013671875,-0.0498046875,0.82177734375
1630678980157,-0.48736572265625,-0.069091796875,0.8350830078125
1630678980157,-0.4866943359375,-0.03302001953125,0.87939453125
1630678980157,-0.4832763671875,-0.03814697265625,0.8359375
1630678980157,-0.4864501953125,-0.0404052734375,0.82806396484375
1630678980157,-0.4871826171875,-0.05987548828125,0.829345703125
1630678980203,-0.48223876953125,-0.08135986328125,0.84259033203125
1630678980203,-0.4801025390625,-0.0791015625,0.84844970703125
1630678980203,-0.4837646484375,-0.0892333984375,0.845947265625
1630678980219,-0.48748779296875,-0.07537841796875,0.84954833984375
1630678980219,-0.486083984375,-0.0931396484375,0.8677978515625
1630678980219,-0.48724365234375,-0.08624267578125,0.8760986328125
1630678980313,-0.479736328125,-0.06549072265625,0.85894775390625
1630678980313,-0.46905517578125,-0.0545654296875,0.86871337890625
1630678980313,-0.4766845703125,-0.05364990234375,0.861572265625
1630678980313,-0.4735107421875,-0.05712890625,0.86773681640625
1630678980313,-0.4815673828125,-0.072509765625,0.85302734375
1630678980313,-0.47735595703125,-0.05950927734375,0.8587646484375
1630678980360,-0.47119140625,-0.05029296875,0.86175537109375
1630678980360,-0.46746826171875,-0.0498046875,0.87530517578125
1630678980375,-0.4674072265625,-0.05126953125,0.8988037109375
1630678980407,-0.467041015625,-0.0423583984375,0.86224365234375
1630678980422,-0.46502685546875,-0.04705810546875,0.872802734375
1630678980422,-0.46405029296875,-0.04644775390625,0.8836669921875
1630678980532,-0.465576171875,-0.03277587890625,0.8704833984375
1630678980547,-0.46356201171875,-0.03277587890625,0.86505126953125
1630678980547,-0.46234130859375,-0.02838134765625,0.86578369140625
1630678980563,-0.46820068359375,-0.0281982421875,0.864990234375
1630678980563,-0.46368408203125,-0.01593017578125,0.85174560546875
1630678980563,-0.4630126953125,-0.026123046875,0.86737060546875
1630678980563,-0.4619140625,-0.03033447265625,0.86761474609375
1630678980578,-0.46307373046875,-0.0260009765625,0.8636474609375
1630678980578,-0.465576171875,-0.02294921875,0.8525390625
1630678980657,-0.4530029296875,-0.012451171875,0.8360595703125
1630678980657,-0.46685791015625,-0.013427734375,0.83795166015625
1630678980657,-0.46173095703125,-0.01580810546875,0.83428955078125
1630678980688,-0.44793701171875,-0.01641845703125,0.85888671875
1630678980688,-0.4462890625,-0.01373291015625,0.944091796875
1630678980688,-0.4453125,-0.01495361328125,0.8907470703125
1630678980751,-0.4302978515625,-0.02459716796875,0.96734619140625
1630678980752,-0.41876220703125,-0.0400390625,0.97607421875
1630678980752,-0.4210205078125,-0.0338134765625,0.9755859375
1630678980848,-0.41217041015625,-0.02777099609375,0.96820068359375
1630678980848,-0.41497802734375,-0.02874755859375,0.97833251953125
1630678980848,-0.41717529296875,-0.02642822265625,0.9366455078125
1630678980926,-0.46685791015625,-0.0162353515625,0.814697265625
1630678980926,-0.44488525390625,-0.0213623046875,0.861572265625
1630678980926,-0.45758056640625,-0.01995849609375,0.840087890625
1630678980926,-0.478515625,-0.0089111328125,0.79638671875
1630678980926,-0.42388916015625,-0.02618408203125,0.911376953125
1630678980926,-0.440673828125,-0.0216064453125,0.88629150390625
1630678981004,-0.48345947265625,-0.00384521484375,0.7816162109375
1630678981004,-0.48980712890625,0.01519775390625,0.77117919921875
1630678981004,-0.4876708984375,0.00164794921875,0.772216796875
1630678981192,-0.50146484375,0.01544189453125,0.79278564453125
1630678981192,-0.494384765625,0.0076904296875,0.7930908203125
1630678981192,-0.48504638671875,0.0074462890625,0.8182373046875
1630678981285,-0.4844970703125,0.00714111328125,0.84503173828125
1630678981285,-0.4716796875,0.0052490234375,0.8858642578125
1630678981285,-0.46337890625,-0.00201416015625,0.92364501953125
1630678981301,-0.44659423828125,-0.0081787109375,0.93328857421875
1630678981316,-0.4326171875,-0.0081787109375,0.932861328125
1630678981316,-0.4278564453125,0.00201416015625,0.9368896484375
1630678981379,-0.416748046875,0.0091552734375,0.92913818359375
1630678981379,-0.418212890625,0.0068359375,0.9364013671875
1630678981379,-0.419677734375,0.005615234375,0.93841552734375
1630678981472,-0.4224853515625,0.00128173828125,0.9168701171875
1630678981472,-0.42626953125,0.001220703125,0.91827392578125
1630678981472,-0.418212890625,-0.0015869140625,0.928955078125
1630678981538,-0.43499755859375,0.0093994140625,0.9044189453125
1630678981538,-0.4345703125,0.01165771484375,0.8853759765625
1630678981538,-0.43121337890625,0.00433349609375,0.91156005859375
1630678981553,-0.4296875,-0.00482177734375,0.88824462890625
1630678981553,-0.42254638671875,0.00732421875,0.87860107421875
1630678981553,-0.42279052734375,0.00372314453125,0.88568115234375
1630678981553,-0.42742919921875,-0.0030517578125,0.87579345703125
1630678981553,-0.41436767578125,-0.00860595703125,0.88580322265625
1630678981553,-0.42633056640625,-0.00164794921875,0.890380859375
1630678981631,-0.41400146484375,-0.012451171875,0.88970947265625
1630678981631,-0.426513671875,-0.01995849609375,0.8948974609375
1630678981631,-0.4324951171875,-0.01507568359375,0.8818359375
1630678981772,-0.47198486328125,-0.041748046875,0.876220703125
1630678981772,-0.4453125,-0.02410888671875,0.87548828125
1630678981772,-0.44915771484375,-0.02734375,0.888671875
1630678981772,-0.46258544921875,-0.0384521484375,0.89520263671875
1630678981772,-0.45233154296875,-0.02886962890625,0.8897705078125
1630678981787,-0.471923828125,-0.04156494140625,0.88653564453125
1630678981819,-0.4945068359375,-0.0452880859375,0.84661865234375
1630678981819,-0.4810791015625,-0.03948974609375,0.85784912109375
1630678981819,-0.4703369140625,-0.0419921875,0.86077880859375
1630678981819,-0.487548828125,-0.04510498046875,0.86492919921875
1630678981819,-0.47198486328125,-0.04718017578125,0.85223388671875
1630678981819,-0.49908447265625,-0.0416259765625,0.86761474609375
1630678981897,-0.49774169921875,-0.04669189453125,0.843994140625
1630678981897,-0.50079345703125,-0.05462646484375,0.8507080078125
1630678981897,-0.51678466796875,-0.04852294921875,0.83953857421875
1630678981897,-0.4962158203125,-0.0523681640625,0.8477783203125
1630678981912,-0.5091552734375,-0.05120849609375,0.77667236328125
1630678981912,-0.496826171875,-0.059326171875,0.85528564453125
1630678981959,-0.50006103515625,-0.064697265625,0.84478759765625
1630678981959,-0.500732421875,-0.0625,0.84027099609375
1630678981975,-0.50762939453125,-0.0560302734375,0.839111328125
1630678981975,-0.48480224609375,-0.06195068359375,0.8359375
1630678981975,-0.49615478515625,-0.05328369140625,0.83441162109375
1630678981975,-0.49462890625,-0.0611572265625,0.83148193359375
1630678982162,-0.49713134765625,-0.06195068359375,0.8455810546875
1630678982162,-0.491455078125,-0.06744384765625,0.8382568359375
1630678982162,-0.494384765625,-0.059814453125,0.84197998046875
1630678982225,-0.49603271484375,-0.06256103515625,0.8475341796875
1630678982225,-0.49493408203125,-0.06646728515625,0.84893798828125
1630678982225,-0.493408203125,-0.0665283203125,0.840087890625
1630678982241,-0.4969482421875,-0.06689453125,0.8553466796875
1630678982256,-0.49456787109375,-0.0733642578125,0.85491943359375
1630678982256,-0.4952392578125,-0.07061767578125,0.85418701171875
1630678982303,-0.496826171875,-0.0689697265625,0.857421875
1630678982303,-0.49444580078125,-0.067138671875,0.854248046875
1630678982303,-0.4921875,-0.06683349609375,0.8553466796875
1630678982506,-0.49859619140625,-0.06585693359375,0.85784912109375
1630678982506,-0.4940185546875,-0.06549072265625,0.851806640625
1630678982506,-0.4947509765625,-0.068603515625,0.8541259765625
1630678982522,-0.4991455078125,-0.06024169921875,0.8482666015625
1630678982522,-0.502685546875,-0.05169677734375,0.8431396484375
1630678982522,-0.49847412109375,-0.05609130859375,0.843505859375
1630678982537,-0.4967041015625,-0.04986572265625,0.84454345703125
1630678982537,-0.49725341796875,-0.0526123046875,0.8505859375
1630678982537,-0.49603271484375,-0.053466796875,0.84686279296875
1630678982571,-0.49481201171875,-0.05352783203125,0.858154296875
1630678982571,-0.49481201171875,-0.0528564453125,0.856201171875
1630678982571,-0.498046875,-0.0574951171875,0.85772705078125
1630678982618,-0.494140625,-0.05682373046875,0.85089111328125
1630678982618,-0.49395751953125,-0.0623779296875,0.851806640625
1630678982618,-0.49273681640625,-0.04864501953125,0.84930419921875
1630678982649,-0.48968505859375,-0.05389404296875,0.8504638671875
1630678982649,-0.488037109375,-0.05206298828125,0.85882568359375
1630678982649,-0.49285888671875,-0.05462646484375,0.8541259765625
1630678982649,-0.49151611328125,-0.0531005859375,0.85687255859375
1630678982649,-0.48968505859375,-0.05419921875,0.85699462890625
1630678982649,-0.48443603515625,-0.05267333984375,0.8511962890625
1630678982800,-0.4903564453125,-0.04541015625,0.85650634765625
1630678982800,-0.48919677734375,-0.0517578125,0.854248046875
1630678982800,-0.488037109375,-0.04974365234375,0.856689453125
1630678982862,-0.489501953125,-0.0535888671875,0.85870361328125
1630678982862,-0.4970703125,-0.05010986328125,0.84674072265625
1630678982862,-0.49371337890625,-0.05487060546875,0.848388671875
1630678982956,-0.4971923828125,-0.03851318359375,0.826904296875
1630678982956,-0.50079345703125,-0.022705078125,0.820068359375
1630678982956,-0.49322509765625,-0.040283203125,0.8314208984375
1630678982956,-0.4974365234375,-0.04412841796875,0.84014892578125
1630678982956,-0.49395751953125,-0.013427734375,0.79388427734375
1630678982956,-0.4976806640625,-0.0185546875,0.8057861328125
1630678983066,-0.47564697265625,-0.01763916015625,0.816162109375
1630678983066,-0.48193359375,-0.012451171875,0.77740478515625
1630678983066,-0.469482421875,-0.0252685546875,0.85137939453125
1630678983081,-0.44390869140625,-0.025634765625,0.87823486328125
1630678983081,-0.45440673828125,-0.02288818359375,0.87451171875
1630678983081,-0.4442138671875,-0.021484375,0.91400146484375
1630678983097,-0.41094970703125,-0.01898193359375,0.932861328125
1630678983097,-0.39080810546875,-0.022216796875,0.92462158203125
1630678983097,-0.42681884765625,-0.02166748046875,0.922607421875
1630678983159,-0.3717041015625,-0.0302734375,0.975830078125
1630678983159,-0.358642578125,-0.0252685546875,0.98822021484375
1630678983159,-0.3818359375,-0.0225830078125,0.9371337890625
1630678983222,-0.35418701171875,-0.00634765625,0.9635009765625
1630678983222,-0.3536376953125,-0.01690673828125,0.9732666015625
1630678983222,-0.35552978515625,-0.007568359375,0.96685791015625
1630678983456,-0.36083984375,0.01214599609375,0.94268798828125
1630678983456,-0.365234375,0.02496337890625,0.92742919921875
1630678983456,-0.35565185546875,-0.00225830078125,0.9541015625
1630678983472,-0.38275146484375,0.031494140625,0.93865966796875
1630678983472,-0.3829345703125,0.0291748046875,0.9324951171875
1630678983472,-0.37109375,0.025146484375,0.92034912109375
1630678983487,-0.37591552734375,0.033447265625,0.92694091796875
1630678983487,-0.38824462890625,0.02264404296875,0.90582275390625
1630678983487,-0.37335205078125,0.02618408203125,0.93310546875
1630678983534,-0.40130615234375,0.0172119140625,0.89727783203125
1630678983534,-0.4083251953125,0.01751708984375,0.88360595703125
1630678983534,-0.392822265625,0.02001953125,0.899169921875
1630678983615,-0.438232421875,0.006103515625,0.86395263671875
1630678983615,-0.43511962890625,0.0068359375,0.8890380859375
1630678983615,-0.43670654296875,0.0123291015625,0.877197265625
1630678983615,-0.41949462890625,0.01068115234375,0.87066650390625
1630678983615,-0.43994140625,0.00714111328125,0.8802490234375
1630678983615,-0.4337158203125,0.00927734375,0.87860107421875
1630678983615,-0.43408203125,0.01068115234375,0.8931884765625
1630678983631,-0.42578125,0.00762939453125,0.86456298828125
1630678983631,-0.43145751953125,0.0205078125,0.8787841796875
1630678983693,-0.43695068359375,0.01318359375,0.8671875
1630678983693,-0.4188232421875,0.0196533203125,0.90435791015625
1630678983693,-0.43365478515625,0.026611328125,0.89697265625
1630678983693,-0.43328857421875,0.01531982421875,0.87933349609375
1630678983693,-0.422607421875,0.02398681640625,0.8983154296875
1630678983693,-0.42694091796875,0.02825927734375,0.89715576171875
1630678983803,-0.402587890625,0.04248046875,0.90753173828125
1630678983803,-0.4197998046875,0.0328369140625,0.9454345703125
1630678983803,-0.42315673828125,0.02728271484375,0.92535400390625
1630678983975,-0.39990234375,0.0628662109375,0.89385986328125
1630678983975,-0.40191650390625,0.078369140625,0.88623046875
1630678983975,-0.39605712890625,0.05963134765625,0.87713623046875
1630678983990,-0.39483642578125,0.05743408203125,0.87298583984375
1630678983990,-0.39654541015625,0.08026123046875,0.8721923828125
1630678983990,-0.4029541015625,0.08477783203125,0.88934326171875
1630678984037,-0.39678955078125,0.0662841796875,0.9119873046875
1630678984037,-0.4014892578125,0.0601806640625,0.9053955078125
1630678984037,-0.3994140625,0.06976318359375,0.903076171875
1630678984053,-0.3875732421875,0.0751953125,0.920654296875
1630678984053,-0.398681640625,0.0682373046875,0.9144287109375
1630678984053,-0.3936767578125,0.0736083984375,0.9290771484375
1630678984115,-0.3775634765625,0.06719970703125,0.92572021484375
1630678984115,-0.37890625,0.06549072265625,0.91986083984375
1630678984115,-0.38348388671875,0.06866455078125,0.9205322265625
1630678984115,-0.3839111328125,0.0675048828125,0.92535400390625
1630678984115,-0.3795166015625,0.0594482421875,0.9278564453125
1630678984115,-0.3851318359375,0.061767578125,0.932861328125
1630678984287,-0.38519287109375,0.0413818359375,0.9468994140625
1630678984287,-0.38092041015625,0.0570068359375,0.92742919921875
1630678984287,-0.37957763671875,0.0538330078125,0.9310302734375
1630678984350,-0.3831787109375,0.0316162109375,0.95159912109375
1630678984365,-0.3880615234375,0.027587890625,0.947265625
1630678984365,-0.38885498046875,0.0113525390625,0.95635986328125
1630678984570,-0.4063720703125,-0.00555419921875,0.9110107421875
1630678984570,-0.38714599609375,0.00579833984375,0.93731689453125
1630678984570,-0.3935546875,0.00140380859375,0.91058349609375
1630678984651,-0.4130859375,-0.02471923828125,0.88958740234375
1630678984651,-0.4071044921875,-0.0257568359375,0.88958740234375
1630678984651,-0.42144775390625,-0.02337646484375,0.89361572265625
1630678984745,-0.431396484375,-0.03741455078125,0.89361572265625
1630678984745,-0.43115234375,-0.04083251953125,0.85986328125
1630678984745,-0.42437744140625,-0.03240966796875,0.8924560546875
1630678984838,-0.44610595703125,-0.0264892578125,0.8460693359375
1630678984838,-0.4365234375,-0.03326416015625,0.8463134765625
1630678984838,-0.456298828125,-0.01812744140625,0.841796875
1630678984838,-0.45135498046875,-0.025146484375,0.83807373046875
1630678984854,-0.4593505859375,-0.0216064453125,0.84686279296875
1630678984854,-0.46392822265625,-0.027099609375,0.85809326171875
1630678984869,-0.465576171875,-0.0238037109375,0.87957763671875
1630678984869,-0.46160888671875,-0.02777099609375,0.8726806640625
1630678984869,-0.462646484375,-0.02410888671875,0.87738037109375
1630678984885,-0.46136474609375,-0.0352783203125,0.87969970703125
1630678984885,-0.4571533203125,-0.04302978515625,0.8792724609375
1630678984885,-0.45928955078125,-0.0225830078125,0.88067626953125
1630678984948,-0.46246337890625,-0.046142578125,0.86224365234375
1630678984948,-0.45989990234375,-0.04443359375,0.88128662109375
1630678984948,-0.46270751953125,-0.0498046875,0.875732421875
1630678985276,-0.4583740234375,-0.04638671875,0.8515625
1630678985276,-0.4578857421875,-0.04327392578125,0.86663818359375
1630678985276,-0.4608154296875,-0.048583984375,0.870361328125
1630678985291,-0.46014404296875,-0.0458984375,0.8765869140625
1630678985291,-0.45672607421875,-0.04931640625,0.87158203125
1630678985291,-0.45452880859375,-0.04803466796875,0.8704833984375
1630678985307,-0.4554443359375,-0.04473876953125,0.88720703125
1630678985322,-0.44720458984375,-0.0389404296875,0.8870849609375
1630678985322,-0.45147705078125,-0.04522705078125,0.89349365234375
1630678985385,-0.444580078125,-0.047607421875,0.88446044921875
1630678985385,-0.4508056640625,-0.0504150390625,0.8958740234375
1630678985385,-0.447021484375,-0.04486083984375,0.8907470703125
1630678985447,-0.4405517578125,-0.05255126953125,0.88494873046875
1630678985447,-0.439208984375,-0.056396484375,0.87701416015625
1630678985447,-0.431884765625,-0.060546875,0.87969970703125
1630678985479,-0.4671630859375,-0.05755615234375,0.888916015625
1630678985479,-0.45709228515625,-0.088623046875,0.88128662109375
1630678985479,-0.4434814453125,-0.06243896484375,0.89801025390625
1630678985479,-0.44677734375,-0.074951171875,0.88836669921875
1630678985479,-0.4471435546875,-0.064208984375,0.8857421875
1630678985479,-0.45465087890625,-0.0684814453125,0.88751220703125
1630678985479,-0.4544677734375,-0.07574462890625,0.875732421875
1630678985479,-0.45355224609375,-0.07940673828125,0.8798828125
1630678985479,-0.44122314453125,-0.095947265625,0.8875732421875
1630678985494,-0.50634765625,0.03009033203125,0.8209228515625
1630678985494,-0.5018310546875,0.03521728515625,0.816162109375
1630678985494,-0.49151611328125,0.02264404296875,0.83251953125
1630678985541,-0.50860595703125,0.00811767578125,0.81439208984375
1630678985541,-0.51031494140625,0.018310546875,0.815185546875
1630678985541,-0.51519775390625,0.0205078125,0.82086181640625
1630678985697,-0.49884033203125,-0.06744384765625,0.850341796875
1630678985697,-0.50958251953125,-0.02764892578125,0.8358154296875
1630678985697,-0.50177001953125,-0.07061767578125,0.86468505859375
1630678985697,-0.50201416015625,-0.0740966796875,0.88165283203125
1630678985697,-0.51361083984375,-0.01513671875,0.817138671875
1630678985697,-0.51434326171875,-0.03466796875,0.84173583984375
1630678985713,-0.50762939453125,-0.0556640625,0.8470458984375
1630678985713,-0.50457763671875,-0.067626953125,0.859130859375
1630678985713,-0.5128173828125,-0.04046630859375,0.8406982421875
1630678985729,-0.50439453125,-0.06182861328125,0.84051513671875
1630678985729,-0.50152587890625,-0.06329345703125,0.846435546875
1630678985729,-0.5008544921875,-0.0626220703125,0.865234375
1630678985760,-0.50384521484375,-0.05059814453125,0.84307861328125
1630678985760,-0.5029296875,-0.054443359375,0.8350830078125
1630678985760,-0.5054931640625,-0.05999755859375,0.86041259765625
1630678985775,-0.50494384765625,-0.050048828125,0.826416015625
1630678985775,-0.50262451171875,-0.045654296875,0.83197021484375
1630678985775,-0.50665283203125,-0.05047607421875,0.845703125
1630678985885,-0.5054931640625,-0.06024169921875,0.83917236328125
1630678985885,-0.5052490234375,-0.05853271484375,0.839111328125
1630678985885,-0.50323486328125,-0.06036376953125,0.85211181640625
1630678985947,-0.5020751953125,-0.0654296875,0.83709716796875
1630678985947,-0.50115966796875,-0.0526123046875,0.84466552734375
1630678985947,-0.49896240234375,-0.06243896484375,0.83734130859375
1630678986010,-0.50323486328125,-0.073486328125,0.857666015625
1630678986010,-0.4996337890625,-0.06591796875,0.85723876953125
1630678986010,-0.50048828125,-0.0625,0.855224609375
1630678986010,-0.505615234375,-0.05615234375,0.846435546875
1630678986010,-0.49969482421875,-0.0653076171875,0.84857177734375
1630678986010,-0.50140380859375,-0.06964111328125,0.84967041015625
1630678986057,-0.50360107421875,-0.06768798828125,0.84637451171875
1630678986072,-0.5015869140625,-0.06390380859375,0.8468017578125
1630678986072,-0.50384521484375,-0.06268310546875,0.83587646484375
1630678986182,-0.5035400390625,-0.063232421875,0.84234619140625
1630678986197,-0.5037841796875,-0.0574951171875,0.84295654296875
1630678986197,-0.500732421875,-0.05987548828125,0.83648681640625
1630678986228,-0.50079345703125,-0.05670166015625,0.84832763671875
1630678986244,-0.504150390625,-0.053466796875,0.851806640625
1630678986244,-0.50384521484375,-0.05511474609375,0.854248046875
1630678986322,-0.50653076171875,-0.04010009765625,0.83843994140625
1630678986322,-0.50421142578125,-0.04180908203125,0.83544921875
1630678986322,-0.50152587890625,-0.0491943359375,0.8411865234375
1630678986369,-0.50457763671875,-0.034423828125,0.84063720703125
1630678986369,-0.498779296875,-0.0380859375,0.84027099609375
1630678986385,-0.5045166015625,-0.03961181640625,0.852294921875
1630678986419,-0.4991455078125,-0.03955078125,0.84320068359375
1630678986419,-0.50396728515625,-0.033447265625,0.83941650390625
1630678986419,-0.496826171875,-0.04608154296875,0.845703125
1630678986466,-0.496826171875,-0.0435791015625,0.85540771484375
1630678986466,-0.49993896484375,-0.04156494140625,0.8568115234375
1630678986466,-0.49896240234375,-0.04620361328125,0.85052490234375
1630678986498,-0.49786376953125,-0.03753662109375,0.85321044921875
1630678986498,-0.49853515625,-0.0440673828125,0.8497314453125
1630678986498,-0.49859619140625,-0.03631591796875,0.8560791015625
1630678986654,-0.4969482421875,-0.03900146484375,0.84869384765625
1630678986654,-0.49468994140625,-0.04248046875,0.853271484375
1630678986654,-0.4931640625,-0.03924560546875,0.85174560546875
1630678986685,-0.4935302734375,-0.04010009765625,0.8531494140625
1630678986685,-0.48834228515625,-0.03900146484375,0.861572265625
1630678986685,-0.49224853515625,-0.04119873046875,0.85150146484375
1630678986685,-0.49072265625,-0.03515625,0.8516845703125
1630678986685,-0.49639892578125,-0.04583740234375,0.8431396484375
1630678986685,-0.4951171875,-0.04058837890625,0.8489990234375
1630678986748,-0.48272705078125,-0.03692626953125,0.86083984375
1630678986748,-0.48358154296875,-0.0399169921875,0.863525390625
1630678986748,-0.490966796875,-0.03936767578125,0.8736572265625
1630678986779,-0.481689453125,-0.04351806640625,0.8653564453125
1630678986794,-0.47906494140625,-0.04144287109375,0.86505126953125
1630678986794,-0.48468017578125,-0.03411865234375,0.86346435546875
1630678986810,-0.48114013671875,-0.04046630859375,0.86285400390625
1630678986810,-0.4803466796875,-0.04296875,0.86785888671875
1630678986810,-0.47906494140625,-0.04443359375,0.862548828125
1630678986872,-0.485107421875,-0.04034423828125,0.8614501953125
1630678986872,-0.4820556640625,-0.04949951171875,0.85791015625
1630678986888,-0.47998046875,-0.0426025390625,0.85369873046875
1630678986935,-0.48095703125,-0.03668212890625,0.86102294921875
1630678986935,-0.4796142578125,-0.03668212890625,0.85662841796875
1630678986950,-0.48095703125,-0.044677734375,0.8604736328125
1630678987044,-0.4820556640625,-0.0390625,0.86285400390625
1630678987060,-0.48291015625,-0.0418701171875,0.86016845703125
1630678987060,-0.47930908203125,-0.0369873046875,0.86297607421875
1630678987154,-0.48248291015625,-0.03448486328125,0.86566162109375
1630678987154,-0.483154296875,-0.03582763671875,0.8626708984375
1630678987154,-0.48321533203125,-0.0386962890625,0.86077880859375
1630678987154,-0.47796630859375,-0.03643798828125,0.859130859375
1630678987154,-0.4796142578125,-0.03594970703125,0.86029052734375
1630678987154,-0.47735595703125,-0.03558349609375,0.8631591796875
1630678987216,-0.48291015625,-0.03118896484375,0.8541259765625
1630678987216,-0.4810791015625,-0.03271484375,0.8553466796875
1630678987232,-0.47821044921875,-0.0294189453125,0.861572265625
1630678987294,-0.47589111328125,-0.03875732421875,0.8607177734375
1630678987294,-0.47601318359375,-0.04351806640625,0.86614990234375
1630678987294,-0.4739990234375,-0.03936767578125,0.8616943359375
1630678987357,-0.47369384765625,-0.0401611328125,0.87225341796875
1630678987357,-0.47296142578125,-0.0355224609375,0.86846923828125
1630678987357,-0.4744873046875,-0.03857421875,0.86822509765625
1630678987372,-0.47265625,-0.0343017578125,0.8719482421875
1630678987372,-0.46673583984375,-0.03204345703125,0.8709716796875
1630678987372,-0.468505859375,-0.03045654296875,0.87249755859375
1630678987435,-0.46826171875,-0.0284423828125,0.87310791015625
1630678987435,-0.4678955078125,-0.0303955078125,0.8709716796875
1630678987435,-0.46966552734375,-0.02813720703125,0.86895751953125
1630678987470,-0.46820068359375,-0.03326416015625,0.8702392578125
1630678987470,-0.4677734375,-0.02947998046875,0.87017822265625
1630678987470,-0.46563720703125,-0.030029296875,0.87469482421875
1630678987610,-0.464599609375,-0.029541015625,0.8758544921875
1630678987626,-0.46484375,-0.03302001953125,0.8736572265625
1630678987626,-0.46429443359375,-0.03533935546875,0.87603759765625
1630678987626,-0.46435546875,-0.03643798828125,0.87457275390625
1630678987626,-0.46722412109375,-0.0343017578125,0.87017822265625
1630678987626,-0.46417236328125,-0.0361328125,0.872802734375
1630678987657,-0.4725341796875,-0.044189453125,0.8671875
1630678987657,-0.4686279296875,-0.03997802734375,0.86767578125
1630678987657,-0.4708251953125,-0.0396728515625,0.8687744140625
1630678987704,-0.46832275390625,-0.03515625,0.87469482421875
1630678987704,-0.4691162109375,-0.0379638671875,0.86541748046875
1630678987704,-0.46630859375,-0.03668212890625,0.8673095703125
1630678987829,-0.47210693359375,-0.0281982421875,0.87591552734375
1630678987829,-0.47052001953125,-0.02960205078125,0.873291015625
1630678987829,-0.47296142578125,-0.0203857421875,0.869873046875
1630678987829,-0.4700927734375,-0.03131103515625,0.87548828125
1630678987829,-0.4678955078125,-0.03802490234375,0.871826171875
1630678987829,-0.4677734375,-0.03851318359375,0.876953125
1630678987954,-0.4776611328125,-0.02166748046875,0.8671875
1630678987954,-0.48028564453125,-0.0107421875,0.828857421875
1630678987954,-0.47979736328125,-0.01043701171875,0.85748291015625
1630678988001,-0.4814453125,-0.0179443359375,0.7889404296875
1630678988001,-0.48907470703125,-0.000732421875,0.79302978515625
1630678988001,-0.49322509765625,0.017578125,0.78936767578125
1630678988063,-0.48193359375,0.03045654296875,0.78619384765625
1630678988063,-0.4527587890625,0.0079345703125,0.79656982421875
1630678988063,-0.46484375,0.0211181640625,0.76568603515625
1630678988141,-0.3753662109375,-0.02862548828125,0.98663330078125
1630678988141,-0.418212890625,-0.0174560546875,0.92413330078125
1630678988141,-0.3857421875,-0.0269775390625,0.97088623046875
1630678988141,-0.43792724609375,-0.0062255859375,0.89801025390625
1630678988141,-0.46209716796875,0.00909423828125,0.85467529296875
1630678988141,-0.40020751953125,-0.0247802734375,0.95819091796875
1630678988204,-0.35198974609375,-0.03515625,1.0137939453125
1630678988204,-0.34002685546875,-0.0321044921875,1.00311279296875
1630678988204,-0.3623046875,-0.03240966796875,0.99786376953125
1630678988297,-0.33807373046875,-0.015380859375,0.97430419921875
1630678988297,-0.35565185546875,0.0015869140625,0.9384765625
1630678988297,-0.35430908203125,-0.0018310546875,0.9530029296875
1630678988297,-0.33465576171875,-0.02593994140625,0.99444580078125
1630678988297,-0.34515380859375,-0.0042724609375,0.9632568359375
1630678988297,-0.33929443359375,-0.027099609375,1.01983642578125
1630678988360,-0.3643798828125,0.0050048828125,0.900146484375
1630678988360,-0.3624267578125,0.00390625,0.9239501953125
1630678988360,-0.38140869140625,0.011962890625,0.8955078125
1630678988407,-0.385986328125,0.0172119140625,0.87847900390625
1630678988407,-0.392578125,0.02191162109375,0.8602294921875
1630678988407,-0.39984130859375,0.02435302734375,0.85150146484375
1630678988489,-0.4140625,0.012939453125,0.87249755859375
1630678988489,-0.412109375,0.01849365234375,0.85418701171875
1630678988489,-0.4061279296875,0.0208740234375,0.840087890625
1630678988535,-0.41497802734375,0.0086669921875,0.88824462890625
1630678988535,-0.41455078125,0.01092529296875,0.89892578125
1630678988535,-0.41363525390625,0.00732421875,0.88739013671875
1630678988567,-0.41461181640625,0.01019287109375,0.902587890625
1630678988567,-0.4178466796875,0.0054931640625,0.9072265625
1630678988567,-0.41864013671875,0.0093994140625,0.90826416015625
1630678988848,-0.429443359375,0.005615234375,0.90264892578125
1630678988848,-0.419677734375,0.0106201171875,0.89959716796875
1630678988864,-0.4306640625,0.00836181640625,0.90960693359375
1630678988879,-0.41339111328125,0.02044677734375,0.882080078125
1630678988879,-0.42742919921875,0.00714111328125,0.88397216796875
1630678988879,-0.421875,0.01800537109375,0.88037109375
1630678988879,-0.42327880859375,0.01165771484375,0.8812255859375
1630678988879,-0.4310302734375,0.0047607421875,0.8980712890625
1630678988879,-0.43206787109375,0.0028076171875,0.91363525390625
1630678989004,-0.41015625,0.02032470703125,0.8914794921875
1630678989004,-0.38702392578125,0.01959228515625,0.93267822265625
1630678989004,-0.39825439453125,0.02099609375,0.91064453125
1630678989051,-0.3770751953125,0.0157470703125,0.91986083984375
1630678989051,-0.3502197265625,0.02386474609375,0.9920654296875
1630678989051,-0.3648681640625,0.02362060546875,0.97320556640625
1630678989051,-0.34619140625,0.02178955078125,0.99127197265625
1630678989051,-0.3714599609375,0.02398681640625,0.9454345703125
1630678989051,-0.35894775390625,0.0225830078125,0.9539794921875
1630678989051,-0.34844970703125,0.01873779296875,0.9716796875
1630678989051,-0.35186767578125,0.02294921875,0.98883056640625
1630678989051,-0.3675537109375,0.01507568359375,0.93231201171875
1630678989082,-0.402587890625,0.00677490234375,0.85784912109375
1630678989082,-0.3883056640625,0.015625,0.88836669921875
1630678989082,-0.41900634765625,0.01123046875,0.82940673828125
1630678989223,-0.462646484375,0.01141357421875,0.833740234375
1630678989223,-0.43328857421875,0.0078125,0.81195068359375
1630678989223,-0.44921875,0.01092529296875,0.80841064453125
1630678989317,-0.46759033203125,0.0040283203125,0.84698486328125
1630678989317,-0.4678955078125,-0.0064697265625,0.863037109375
1630678989317,-0.47076416015625,0.01123046875,0.83355712890625
1630678989332,-0.46136474609375,-0.0262451171875,0.93902587890625
1630678989348,-0.46466064453125,-0.0296630859375,0.89642333984375
1630678989348,-0.46112060546875,-0.02996826171875,0.9189453125
1630678989426,-0.4490966796875,-0.0325927734375,0.94012451171875
1630678989426,-0.44757080078125,-0.051025390625,0.9151611328125
1630678989426,-0.44854736328125,-0.07781982421875,0.910400390625
1630678989473,-0.46710205078125,-0.07061767578125,0.87359619140625
1630678989473,-0.4521484375,-0.07305908203125,0.87567138671875
1630678989473,-0.4468994140625,-0.0819091796875,0.8936767578125
1630678989835,-0.470458984375,-0.056640625,0.8447265625
1630678989835,-0.4698486328125,-0.064208984375,0.8607177734375
1630678989835,-0.46826171875,-0.02166748046875,0.82647705078125
1630678989835,-0.47528076171875,-0.014892578125,0.82244873046875
1630678989835,-0.48748779296875,-0.03228759765625,0.83331298828125
1630678989835,-0.47100830078125,-0.072021484375,0.8682861328125
1630678989835,-0.466552734375,-0.02032470703125,0.82421875
1630678989835,-0.473876953125,-0.031494140625,0.83099365234375
1630678989835,-0.470947265625,-0.0389404296875,0.83966064453125
1630678989976,-0.5013427734375,-0.04132080078125,0.8521728515625
1630678989976,-0.4937744140625,-0.04144287109375,0.8626708984375
1630678989976,-0.4957275390625,-0.0362548828125,0.84063720703125
1630678990023,-0.46221923828125,-0.0543212890625,0.90118408203125
1630678990023,-0.43017578125,-0.05511474609375,0.91265869140625
1630678990023,-0.4833984375,-0.04986572265625,0.8834228515625
1630678990070,-0.4388427734375,-0.05902099609375,0.95758056640625
1630678990070,-0.43048095703125,-0.059814453125,0.90228271484375
1630678990085,-0.456787109375,-0.0625,0.9034423828125
1630678990195,-0.44525146484375,-0.05364990234375,0.901611328125
1630678990195,-0.454345703125,-0.04913330078125,0.89630126953125
1630678990195,-0.44659423828125,-0.03936767578125,0.87237548828125
1630678990195,-0.44189453125,-0.05364990234375,0.8974609375
1630678990195,-0.45819091796875,-0.04376220703125,0.89215087890625
1630678990195,-0.45672607421875,-0.037841796875,0.8814697265625
1630678990257,-0.465576171875,-0.03955078125,0.87158203125
1630678990257,-0.4730224609375,-0.025390625,0.8656005859375
1630678990257,-0.4786376953125,-0.0338134765625,0.8643798828125
1630678990382,-0.4573974609375,-0.02484130859375,0.85906982421875
1630678990382,-0.469970703125,-0.02423095703125,0.865966796875
1630678990382,-0.475830078125,-0.02667236328125,0.86297607421875
1630678990382,-0.45458984375,-0.02099609375,0.88641357421875
1630678990382,-0.47454833984375,-0.0242919921875,0.87884521484375
1630678990382,-0.46002197265625,-0.02899169921875,0.86474609375
1630678990460,-0.48614501953125,-0.02252197265625,0.89056396484375
1630678990460,-0.40740966796875,-0.02642822265625,0.88079833984375
1630678990460,-0.47161865234375,-0.0341796875,0.87335205078125
1630678990491,-0.485595703125,-0.07757568359375,0.84185791015625
1630678990491,-0.4620361328125,-0.04217529296875,0.87896728515625
1630678990491,-0.4793701171875,-0.0697021484375,0.84808349609375
1630678990491,-0.45556640625,-0.04412841796875,0.87994384765625
1630678990491,-0.48577880859375,-0.082763671875,0.8251953125
1630678990491,-0.4852294921875,-0.08306884765625,0.8438720703125
1630678990491,-0.4696044921875,-0.033935546875,0.87310791015625
1630678990491,-0.4747314453125,-0.06146240234375,0.8516845703125
1630678990491,-0.494873046875,-0.08447265625,0.84820556640625
1630678990538,-0.45257568359375,-0.069580078125,0.85821533203125
1630678990538,-0.51214599609375,-0.07977294921875,0.8489990234375
1630678990538,-0.52630615234375,-0.08294677734375,0.86016845703125
1630678990538,-0.50738525390625,-0.0863037109375,0.85357666015625
1630678990538,-0.47979736328125,-0.0504150390625,0.864501953125
1630678990538,-0.45367431640625,-0.06256103515625,0.859619140625
1630678990697,-0.49676513671875,-0.03631591796875,0.8643798828125
1630678990697,-0.504150390625,-0.01617431640625,0.86346435546875
1630678990697,-0.5093994140625,-0.01605224609375,0.8662109375
1630678990853,-0.50836181640625,-0.0128173828125,0.8658447265625
1630678990853,-0.4761962890625,-0.00445556640625,0.87420654296875
1630678990853,-0.46044921875,-0.008056640625,0.87750244140625
1630678990916,-0.509521484375,-0.017578125,0.9617919921875
1630678990931,-0.49017333984375,-0.02374267578125,0.8800048828125
1630678990931,-0.504638671875,-0.02117919921875,0.8665771484375
1630678990963,-0.51165771484375,-0.0125732421875,0.79638671875
1630678990963,-0.51849365234375,-0.019287109375,0.74755859375
1630678990963,-0.512451171875,-0.01434326171875,1.0328369140625
1630678991010,-0.50323486328125,0.00799560546875,0.72802734375
1630678991010,-0.5257568359375,0.0003662109375,0.7091064453125
1630678991010,-0.486572265625,0.0006103515625,0.7734375
1630678991056,-0.4921875,0.0106201171875,0.82122802734375
1630678991056,-0.5509033203125,0.0032958984375,0.8228759765625
1630678991056,-0.534423828125,0.00372314453125,0.8134765625
1630678991103,-0.54034423828125,0.00244140625,0.86895751953125
1630678991103,-0.492431640625,0.01177978515625,0.845458984375
1630678991103,-0.50262451171875,0.001708984375,0.8583984375
1630678991151,-0.52728271484375,0.0159912109375,0.822509765625
1630678991151,-0.4932861328125,0.0067138671875,0.8385009765625
1630678991151,-0.5162353515625,0.0150146484375,0.84063720703125
1630678991166,-0.52764892578125,-0.00030517578125,0.86456298828125
1630678991166,-0.5384521484375,-0.00250244140625,0.8480224609375
1630678991166,-0.53546142578125,0.0040283203125,0.84039306640625
1630678991213,-0.52667236328125,0.003662109375,0.87274169921875
1630678991213,-0.5289306640625,-0.0013427734375,0.843017578125
1630678991213,-0.5234375,0.0076904296875,0.83843994140625
1630678991259,-0.52294921875,0.0115966796875,0.83685302734375
1630678991259,-0.521484375,0.01055908203125,0.83660888671875
1630678991259,-0.51678466796875,0.01007080078125,0.8172607421875
1630678991275,-0.509521484375,0.00347900390625,0.858154296875
1630678991275,-0.52130126953125,0.00494384765625,0.860107421875
1630678991275,-0.5340576171875,-0.00628662109375,0.88140869140625
1630678991291,-0.52764892578125,0.00469970703125,0.827880859375
1630678991291,-0.51904296875,0.010498046875,0.8214111328125
1630678991291,-0.5205078125,0.011474609375,0.81646728515625
1630678991353,-0.5042724609375,0.010009765625,0.8350830078125
1630678991353,-0.5311279296875,0.00762939453125,0.81329345703125
1630678991353,-0.53076171875,0.00714111328125,0.8389892578125
1630678991353,-0.50042724609375,0.008056640625,0.8302001953125
1630678991353,-0.5274658203125,-0.00103759765625,0.84375
1630678991353,-0.54302978515625,0.00396728515625,0.82049560546875
1630678991431,-0.515380859375,0.01202392578125,0.83868408203125
1630678991447,-0.5057373046875,0.00885009765625,0.832275390625
1630678991447,-0.5291748046875,0.0079345703125,0.8294677734375
1630678991494,-0.52435302734375,-0.00311279296875,0.845458984375
1630678991494,-0.52655029296875,0.00323486328125,0.843505859375
1630678991494,-0.50799560546875,0.0013427734375,0.84649658203125
1630678991650,-0.5318603515625,-0.00421142578125,0.85015869140625
1630678991650,-0.51336669921875,-0.0107421875,0.83941650390625
1630678991650,-0.51116943359375,-0.01019287109375,0.84423828125
1630678991666,-0.52349853515625,-0.02392578125,0.8544921875
1630678991666,-0.54034423828125,-0.02227783203125,0.84136962890625
1630678991666,-0.52276611328125,-0.0152587890625,0.83563232421875
1630678991681,-0.527587890625,-0.01239013671875,0.8353271484375
1630678991681,-0.49859619140625,-0.01904296875,0.83917236328125
1630678991681,-0.529052734375,-0.01995849609375,0.8399658203125
1630678991697,-0.52069091796875,0.0029296875,0.84600830078125
1630678991697,-0.5159912109375,0.00335693359375,0.83642578125
1630678991697,-0.52618408203125,0.0096435546875,0.82476806640625
1630678991744,-0.531494140625,0.016845703125,0.82440185546875
1630678991744,-0.53009033203125,0.000732421875,0.84295654296875
1630678991744,-0.535400390625,0.00921630859375,0.8314208984375
1630678991759,-0.52728271484375,-0.0032958984375,0.84735107421875
1630678991759,-0.52423095703125,-0.001220703125,0.832275390625
1630678991759,-0.52392578125,-0.0050048828125,0.82550048828125
1630678991853,-0.52716064453125,-0.01800537109375,0.8245849609375
1630678991853,-0.525390625,-0.0098876953125,0.841064453125
1630678991853,-0.52362060546875,-0.00384521484375,0.82220458984375
1630678991885,-0.5263671875,-0.02166748046875,0.83087158203125
1630678991885,-0.5277099609375,-0.0191650390625,0.83319091796875
1630678991885,-0.52337646484375,-0.017822265625,0.81903076171875
1630678991962,-0.52667236328125,-0.02001953125,0.8360595703125
1630678991962,-0.52740478515625,-0.00726318359375,0.8446044921875
1630678991962,-0.52911376953125,-0.01727294921875,0.846435546875
1630678992041,-0.5263671875,-0.00146484375,0.82965087890625
1630678992041,-0.52435302734375,-0.00244140625,0.83209228515625
1630678992041,-0.52789306640625,-0.008544921875,0.83404541015625
1630678992056,-0.52508544921875,-0.00836181640625,0.82904052734375
1630678992056,-0.52642822265625,-0.00958251953125,0.8302001953125
1630678992056,-0.52716064453125,-0.00933837890625,0.83197021484375
1630678992134,-0.5340576171875,-0.01593017578125,0.83563232421875
1630678992134,-0.52447509765625,-0.015869140625,0.83282470703125
1630678992134,-0.53009033203125,-0.0159912109375,0.83563232421875
1630678992181,-0.531005859375,-0.01153564453125,0.832763671875
1630678992197,-0.5345458984375,-0.01397705078125,0.83013916015625
1630678992197,-0.5277099609375,-0.01678466796875,0.82733154296875
1630678992244,-0.52618408203125,-0.017333984375,0.82537841796875
1630678992244,-0.52783203125,-0.01361083984375,0.82928466796875
1630678992244,-0.5274658203125,-0.0169677734375,0.82177734375
1630678992338,-0.52630615234375,-0.01507568359375,0.82928466796875
1630678992338,-0.528564453125,-0.00946044921875,0.83306884765625
1630678992338,-0.525390625,-0.0111083984375,0.835205078125
1630678992418,-0.524169921875,-0.01324462890625,0.838134765625
1630678992418,-0.52703857421875,-0.015869140625,0.832763671875
1630678992418,-0.52490234375,-0.01348876953125,0.84185791015625
1630678992511,-0.52410888671875,-0.0169677734375,0.83563232421875
1630678992511,-0.5235595703125,-0.0076904296875,0.83984375
1630678992511,-0.521728515625,-0.01324462890625,0.83465576171875
1630678992527,-0.528076171875,-0.01611328125,0.83392333984375
1630678992527,-0.5284423828125,-0.00958251953125,0.83551025390625
1630678992527,-0.529541015625,-0.01129150390625,0.830810546875
1630678992574,-0.5296630859375,-0.01055908203125,0.8275146484375
1630678992574,-0.527587890625,-0.0194091796875,0.83447265625
1630678992574,-0.52960205078125,-0.0126953125,0.83349609375
1630678992621,-0.5283203125,-0.0076904296875,0.82562255859375
1630678992621,-0.525146484375,-0.016357421875,0.830078125
1630678992621,-0.52899169921875,-0.01275634765625,0.83807373046875
1630678992652,-0.5286865234375,-0.01580810546875,0.83184814453125
1630678992668,-0.5225830078125,-0.010498046875,0.833740234375
1630678992668,-0.527099609375,-0.0106201171875,0.83282470703125
1630678992699,-0.52490234375,-0.011962890625,0.8355712890625
1630678992699,-0.52545166015625,-0.011474609375,0.8397216796875
1630678992699,-0.52911376953125,-0.01776123046875,0.83544921875
1630678992762,-0.52374267578125,-0.01446533203125,0.83184814453125
1630678992762,-0.52813720703125,-0.01336669921875,0.82855224609375
1630678992762,-0.52587890625,-0.015625,0.83209228515625
1630678992886,-0.5225830078125,-0.02178955078125,0.8304443359375
1630678992886,-0.5242919921875,-0.0242919921875,0.83111572265625
1630678992886,-0.5252685546875,-0.01812744140625,0.8292236328125
1630678992949,-0.52496337890625,-0.02716064453125,0.8438720703125
1630678992949,-0.52655029296875,-0.025390625,0.83758544921875
1630678992949,-0.52655029296875,-0.02374267578125,0.8387451171875
1630678992964,-0.52728271484375,-0.02874755859375,0.830078125
1630678992964,-0.52667236328125,-0.0279541015625,0.83306884765625
1630678992964,-0.5286865234375,-0.0201416015625,0.830810546875
1630678993027,-0.52471923828125,-0.01434326171875,0.8302001953125
1630678993027,-0.5262451171875,-0.0118408203125,0.82672119140625
1630678993027,-0.5242919921875,-0.0130615234375,0.83392333984375
1630678993042,-0.5250244140625,-0.0166015625,0.83154296875
1630678993042,-0.527587890625,-0.016357421875,0.82733154296875
1630678993042,-0.527587890625,-0.0191650390625,0.83209228515625
1630678993199,-0.52557373046875,-0.015869140625,0.831787109375
1630678993199,-0.5269775390625,-0.0206298828125,0.8336181640625
1630678993199,-0.52996826171875,-0.021484375,0.8311767578125
1630678993277,-0.52935791015625,-0.01806640625,0.83050537109375
1630678993277,-0.531494140625,-0.02117919921875,0.83465576171875
1630678993277,-0.5308837890625,-0.01904296875,0.8310546875
1630678993308,-0.533447265625,-0.01702880859375,0.83038330078125
1630678993308,-0.530517578125,-0.01409912109375,0.82672119140625
1630678993308,-0.53216552734375,-0.01544189453125,0.8297119140625
1630678993437,-0.52972412109375,-0.015625,0.82928466796875
1630678993437,-0.531982421875,-0.01397705078125,0.82904052734375
1630678993453,-0.52789306640625,-0.0142822265625,0.823486328125
1630678993469,-0.53192138671875,-0.01214599609375,0.82452392578125
1630678993469,-0.53326416015625,-0.01287841796875,0.82684326171875
1630678993469,-0.53204345703125,-0.0142822265625,0.82666015625
1630678993469,-0.52984619140625,-0.01043701171875,0.82659912109375
1630678993469,-0.527587890625,-0.01025390625,0.8306884765625
1630678993469,-0.5235595703125,-0.0103759765625,0.83056640625
1630678993500,-0.5250244140625,-0.01080322265625,0.83282470703125
1630678993500,-0.5262451171875,-0.0091552734375,0.83197021484375
1630678993500,-0.52630615234375,-0.010986328125,0.8284912109375
1630678993609,-0.52557373046875,-0.0120849609375,0.833984375
1630678993609,-0.534423828125,-0.01416015625,0.84344482421875
1630678993609,-0.53021240234375,-0.0120849609375,0.841552734375
1630678993640,-0.53021240234375,-0.0184326171875,0.8271484375
1630678993641,-0.5308837890625,-0.019287109375,0.8345947265625
1630678993641,-0.53302001953125,-0.0191650390625,0.8369140625
1630678993690,-0.53155517578125,-0.01409912109375,0.82525634765625
1630678993690,-0.5303955078125,-0.008056640625,0.82769775390625
1630678993690,-0.53118896484375,-0.01214599609375,0.8272705078125
1630678993721,-0.5284423828125,-0.01519775390625,0.82257080078125
1630678993721,-0.530517578125,-0.0130615234375,0.822509765625
1630678993721,-0.52783203125,-0.015380859375,0.82989501953125
1630678993783,-0.53314208984375,-0.01580810546875,0.82647705078125
1630678993783,-0.53021240234375,-0.009765625,0.8272705078125
1630678993783,-0.5318603515625,-0.01263427734375,0.8349609375
1630678993846,-0.53350830078125,-0.01116943359375,0.8280029296875
1630678993846,-0.53314208984375,-0.00653076171875,0.83441162109375
1630678993846,-0.5333251953125,-0.0050048828125,0.83056640625
1630678993892,-0.5294189453125,-0.00927734375,0.827392578125
1630678993892,-0.52740478515625,-0.0098876953125,0.8232421875
1630678993892,-0.52960205078125,-0.00726318359375,0.825927734375
1630678994017,-0.53045654296875,-0.01422119140625,0.8294677734375
1630678994017,-0.52862548828125,-0.01806640625,0.830078125
1630678994017,-0.5263671875,-0.02093505859375,0.83282470703125
1630678994158,-0.52288818359375,-0.02197265625,0.83905029296875
1630678994158,-0.52374267578125,-0.0177001953125,0.8409423828125
1630678994158,-0.528076171875,-0.01947021484375,0.84320068359375
1630678994189,-0.5196533203125,-0.01422119140625,0.837158203125
1630678994189,-0.522216796875,-0.01287841796875,0.84234619140625
1630678994189,-0.5189208984375,-0.0089111328125,0.840576171875
1630678994189,-0.52117919921875,-0.0166015625,0.84149169921875
1630678994205,-0.51812744140625,-0.01171875,0.84429931640625
1630678994205,-0.51861572265625,-0.009765625,0.8372802734375
1630678994299,-0.51763916015625,-0.01104736328125,0.83453369140625
1630678994314,-0.5203857421875,-0.0118408203125,0.8336181640625
1630678994314,-0.51654052734375,-0.03070068359375,0.828125
1630678994314,-0.5164794921875,-0.01904296875,0.8341064453125
1630678994314,-0.51702880859375,-0.0283203125,0.83544921875
1630678994314,-0.51922607421875,-0.015380859375,0.832763671875
1630678994424,-0.5205078125,-0.0238037109375,0.83294677734375
1630678994424,-0.52191162109375,-0.01513671875,0.838134765625
1630678994424,-0.5223388671875,-0.0093994140625,0.83782958984375
1630678994551,-0.51983642578125,-0.00927734375,0.84796142578125
1630678994551,-0.51763916015625,-0.00665283203125,0.8582763671875
1630678994551,-0.51849365234375,-0.010986328125,0.86456298828125
1630678994739,-0.5157470703125,-0.01251220703125,0.8233642578125
1630678994739,-0.5135498046875,-0.008056640625,0.84521484375
1630678994739,-0.512939453125,-0.00897216796875,0.85003662109375
1630678994755,-0.53656005859375,-0.00128173828125,0.82330322265625
1630678994755,-0.52935791015625,-0.00885009765625,0.8172607421875
1630678994755,-0.52069091796875,-0.00775146484375,0.8232421875
1630678994801,-0.53326416015625,0.00457763671875,0.81024169921875
1630678994801,-0.52484130859375,-0.010986328125,0.83575439453125
1630678994801,-0.531005859375,-0.00421142578125,0.8232421875
1630678995020,-0.50732421875,-0.00042724609375,0.8990478515625
1630678995020,-0.4970703125,0.002197265625,0.88958740234375
1630678995020,-0.5150146484375,-0.0032958984375,0.86572265625
1630678995067,-0.477294921875,0.00177001953125,0.8914794921875
1630678995067,-0.4888916015625,0.00164794921875,0.88848876953125
1630678995067,-0.47821044921875,-0.00628662109375,0.88702392578125
1630678995192,-0.49493408203125,-0.009033203125,0.8624267578125
1630678995192,-0.5,-0.00732421875,0.89495849609375
1630678995192,-0.50054931640625,-0.00830078125,0.8564453125
1630678995223,-0.54510498046875,-0.0137939453125,0.79107666015625
1630678995238,-0.51409912109375,-0.01519775390625,0.8092041015625
1630678995238,-0.57159423828125,-0.02142333984375,0.76318359375
1630678995238,-0.5374755859375,-0.01751708984375,0.76397705078125
1630678995238,-0.5537109375,-0.01470947265625,0.7935791015625
1630678995238,-0.529296875,-0.0135498046875,0.83648681640625
1630678995270,-0.5521240234375,-0.023193359375,0.7552490234375
1630678995270,-0.55364990234375,-0.02276611328125,0.76055908203125
1630678995285,-0.56707763671875,-0.033203125,0.7547607421875
1630678995317,-0.55633544921875,-0.02972412109375,0.739501953125
1630678995317,-0.5601806640625,0.006103515625,0.748779296875
1630678995317,-0.54052734375,-0.0164794921875,0.69561767578125
1630678995332,-0.55126953125,-0.02001953125,0.843505859375
1630678995332,-0.506591796875,-0.0458984375,0.87969970703125
1630678995332,-0.524169921875,-0.02789306640625,0.86676025390625
1630678995332,-0.53460693359375,-0.0242919921875,0.8406982421875
1630678995332,-0.53741455078125,-0.03021240234375,0.87255859375
1630678995332,-0.564697265625,-0.00848388671875,0.8145751953125
1630678995348,-0.47442626953125,-0.06591796875,0.85845947265625
1630678995363,-0.48114013671875,-0.06005859375,0.8709716796875
1630678995363,-0.49468994140625,-0.05908203125,0.88836669921875
1630678995410,-0.4365234375,-0.03973388671875,0.921875
1630678995410,-0.42315673828125,-0.020751953125,0.9085693359375
1630678995410,-0.42919921875,-0.02801513671875,0.92352294921875
1630678995410,-0.4261474609375,-0.013427734375,0.8922119140625
1630678995410,-0.42108154296875,-0.01611328125,0.89178466796875
1630678995410,-0.42254638671875,-0.019287109375,0.903076171875
1630678995410,-0.4432373046875,-0.05059814453125,0.92218017578125
1630678995410,-0.42425537109375,-0.01641845703125,0.90283203125
1630678995410,-0.44830322265625,-0.05682373046875,0.9254150390625
1630678995473,-0.4481201171875,-0.0040283203125,0.89068603515625
1630678995473,-0.45721435546875,-0.00323486328125,0.89337158203125
1630678995473,-0.47039794921875,-0.010498046875,0.86968994140625
1630678995473,-0.46356201171875,-0.0048828125,0.87347412109375
1630678995488,-0.43609619140625,-0.00091552734375,0.88018798828125
1630678995488,-0.4398193359375,-0.00738525390625,0.8966064453125
1630678995569,-0.47772216796875,-0.01812744140625,0.8616943359375
1630678995569,-0.4805908203125,-0.01397705078125,0.86480712890625
1630678995569,-0.49029541015625,-0.0196533203125,0.85736083984375
1630678995694,-0.50616455078125,-0.02947998046875,0.8447265625
1630678995694,-0.5184326171875,-0.0211181640625,0.82928466796875
1630678995694,-0.5078125,-0.0308837890625,0.8397216796875
1630678995709,-0.5008544921875,-0.0257568359375,0.8505859375
1630678995709,-0.493408203125,-0.01995849609375,0.85223388671875
1630678995709,-0.5174560546875,-0.0218505859375,0.82928466796875
1630678995756,-0.52899169921875,-0.027587890625,0.82049560546875
1630678995756,-0.52960205078125,-0.031494140625,0.822998046875
1630678995772,-0.52569580078125,-0.023193359375,0.82440185546875
1630678995819,-0.522705078125,-0.0211181640625,0.83319091796875
1630678995834,-0.52423095703125,-0.02288818359375,0.82574462890625
1630678996053,-0.51568603515625,-0.02288818359375,0.8372802734375
1630678996053,-0.512451171875,-0.02423095703125,0.8389892578125
1630678996053,-0.5162353515625,-0.02093505859375,0.83209228515625
1630678996147,-0.50244140625,-0.026123046875,0.84429931640625
1630678996147,-0.50885009765625,-0.0242919921875,0.841064453125
1630678996147,-0.50201416015625,-0.02056884765625,0.83990478515625
1630678996194,-0.4981689453125,-0.0284423828125,0.8468017578125
1630678996194,-0.49322509765625,-0.02545166015625,0.84869384765625
1630678996194,-0.49224853515625,-0.03155517578125,0.8536376953125
1630678996209,-0.48760986328125,-0.02972412109375,0.86224365234375
1630678996209,-0.49237060546875,-0.02972412109375,0.8590087890625
1630678996225,-0.48809814453125,-0.031005859375,0.86334228515625
1630678996256,-0.48828125,-0.03375244140625,0.85736083984375
1630678996256,-0.4893798828125,-0.03521728515625,0.85955810546875
1630678996256,-0.4864501953125,-0.03277587890625,0.8551025390625
1630678996288,-0.49359130859375,-0.050537109375,0.87335205078125
1630678996288,-0.4915771484375,-0.04327392578125,0.8692626953125
1630678996288,-0.48895263671875,-0.036376953125,0.8555908203125
1630678996303,-0.4942626953125,-0.056884765625,0.86773681640625
1630678996303,-0.4927978515625,-0.07672119140625,0.873779296875
1630678996303,-0.4945068359375,-0.0869140625,0.86822509765625
1630678996381,-0.4964599609375,-0.08428955078125,0.86102294921875
1630678996381,-0.50823974609375,-0.07232666015625,0.8485107421875
1630678996397,-0.50262451171875,-0.07501220703125,0.86871337890625
1630678996412,-0.4739990234375,-0.04693603515625,0.8388671875
1630678996412,-0.53082275390625,-0.038330078125,0.81866455078125
1630678996412,-0.44732666015625,-0.06396484375,0.8507080078125
1630678996412,-0.50506591796875,-0.04052734375,0.807861328125
1630678996412,-0.5318603515625,-0.02777099609375,0.8125
1630678996412,-0.523681640625,-0.00262451171875,0.82562255859375
1630678996459,-0.5333251953125,0.00799560546875,0.84832763671875
1630678996459,-0.525634765625,0.017578125,0.83074951171875
1630678996459,-0.51654052734375,0.0115966796875,0.8077392578125
1630678996506,-0.519775390625,0.01214599609375,0.84674072265625
1630678996506,-0.52398681640625,0.0146484375,0.82965087890625
1630678996506,-0.5264892578125,0.01904296875,0.84552001953125
1630678996603,-0.5206298828125,0.00946044921875,0.83575439453125
1630678996603,-0.5555419921875,0.0106201171875,0.8533935546875
1630678996603,-0.51397705078125,0.01593017578125,0.86358642578125
1630678996681,-0.45849609375,-0.0025634765625,0.8212890625
1630678996681,-0.558837890625,0.00274658203125,0.834716796875
1630678996681,-0.55133056640625,-0.01544189453125,0.83416748046875
1630678996743,-0.538818359375,0.00439453125,0.82623291015625
1630678996743,-0.5108642578125,0.011962890625,0.8265380859375
1630678996759,-0.5235595703125,0.005859375,0.83807373046875
1630678996822,-0.5174560546875,0.004150390625,0.83447265625
1630678996822,-0.5439453125,0.006591796875,0.8387451171875
1630678996822,-0.5133056640625,0.0108642578125,0.832275390625
1630678996978,-0.52923583984375,0.008544921875,0.82464599609375
1630678996978,-0.52899169921875,0.0118408203125,0.82421875
1630678996978,-0.53411865234375,0.01300048828125,0.8255615234375
1630678997009,-0.53729248046875,0.00274658203125,0.84130859375
1630678997009,-0.52642822265625,0.00390625,0.8123779296875
1630678997009,-0.54949951171875,0.00927734375,0.761962890625
1630678997040,-0.52587890625,-0.0015869140625,0.8251953125
1630678997040,-0.51336669921875,0.002197265625,0.8221435546875
1630678997040,-0.53399658203125,-0.00335693359375,0.82861328125
1630678997071,-0.53509521484375,-0.00445556640625,0.826416015625
1630678997071,-0.54095458984375,-0.0030517578125,0.8304443359375
1630678997071,-0.5394287109375,-0.00299072265625,0.8345947265625
1630678997103,-0.53448486328125,0.0015869140625,0.83221435546875
1630678997118,-0.5301513671875,-0.0006103515625,0.8372802734375
1630678997118,-0.52777099609375,-0.00384521484375,0.83160400390625
1630678997243,-0.528076171875,-0.0057373046875,0.83673095703125
1630678997243,-0.53314208984375,-0.0048828125,0.83734130859375
1630678997243,-0.5299072265625,-0.00726318359375,0.8314208984375
1630678997321,-0.53118896484375,-0.002685546875,0.836669921875
1630678997321,-0.5255126953125,-0.0035400390625,0.83551025390625
1630678997321,-0.5208740234375,0.002197265625,0.83453369140625
1630678997353,-0.52789306640625,0.004638671875,0.83154296875
1630678997353,-0.52410888671875,0.00067138671875,0.83526611328125
1630678997353,-0.52587890625,-0.0025634765625,0.83294677734375
1630678997384,-0.52972412109375,0.0032958984375,0.83135986328125
1630678997384,-0.52935791015625,-0.00421142578125,0.8212890625
1630678997400,-0.53076171875,0.001953125,0.83050537109375
1630678997447,-0.53466796875,-0.00189208984375,0.8272705078125
1630678997447,-0.53143310546875,0.0013427734375,0.82635498046875
1630678997447,-0.53167724609375,-0.00518798828125,0.8267822265625
1630678997494,-0.53082275390625,6.103515625e-05,0.82647705078125
1630678997509,-0.534423828125,-0.0013427734375,0.82598876953125
1630678997509,-0.53326416015625,0.00250244140625,0.8248291015625
1630678997591,-0.53118896484375,6.103515625e-05,0.83251953125
1630678997591,-0.53460693359375,0.00396728515625,0.828369140625
1630678997591,-0.53460693359375,-0.0008544921875,0.8306884765625
1630678997622,-0.527099609375,0.017578125,0.83837890625
1630678997622,-0.534912109375,0.005859375,0.8311767578125
1630678997622,-0.53607177734375,0.0118408203125,0.8382568359375
1630678997794,-0.52587890625,0.02447509765625,0.86297607421875
1630678997794,-0.5240478515625,0.0242919921875,0.87451171875
1630678997809,-0.5283203125,0.0474853515625,0.80621337890625
1630678997809,-0.526123046875,0.03375244140625,0.84619140625
1630678997809,-0.5267333984375,0.03997802734375,0.8175048828125
1630678997809,-0.52923583984375,0.02838134765625,0.84844970703125
1630678998044,-0.52740478515625,0.0447998046875,0.78045654296875
1630678998059,-0.52593994140625,0.04541015625,0.77630615234375
1630678998059,-0.5350341796875,0.0281982421875,0.77618408203125
1630678998059,-0.53448486328125,0.00213623046875,0.770751953125
1630678998059,-0.5413818359375,0.013916015625,0.76983642578125
1630678998059,-0.54498291015625,0.04345703125,0.781005859375
1630678998138,-0.5213623046875,-0.01446533203125,0.8033447265625
1630678998138,-0.5146484375,-0.01446533203125,0.8140869140625
1630678998138,-0.53204345703125,-0.00677490234375,0.795166015625
1630678998359,-0.4793701171875,0.0145263671875,0.88739013671875
1630678998359,-0.48736572265625,0.0089111328125,0.85150146484375
1630678998359,-0.502197265625,-0.0003662109375,0.814453125
1630678998675,-0.44659423828125,0.029052734375,0.895751953125
1630678998675,-0.456298828125,0.0291748046875,0.8934326171875
1630678998675,-0.46575927734375,0.02001953125,0.88421630859375
1630678998722,-0.4283447265625,0.02191162109375,0.91717529296875
1630678998722,-0.42462158203125,-0.00115966796875,0.94921875
1630678998722,-0.4329833984375,0.0260009765625,0.9022216796875
1630678998769,-0.4066162109375,-0.03509521484375,0.97467041015625
1630678998769,-0.41351318359375,-0.025634765625,0.957275390625
1630678998769,-0.396728515625,-0.02838134765625,0.96929931640625
1630678998909,-0.38018798828125,-0.01629638671875,0.98480224609375
1630678998909,-0.37664794921875,-0.00677490234375,0.97406005859375
1630678998925,-0.38592529296875,-0.023193359375,0.9976806640625
1630678999003,-0.40728759765625,0.0487060546875,0.8629150390625
1630678999003,-0.43365478515625,0.05657958984375,0.83343505859375
1630678999003,-0.423828125,0.04791259765625,0.84869384765625
1630678999019,-0.38818359375,0.02447509765625,0.92041015625
1630678999019,-0.3790283203125,0.01165771484375,0.95098876953125
1630678999019,-0.4024658203125,0.04180908203125,0.8875732421875
1630678999081,-0.4156494140625,0.031005859375,0.94879150390625
1630678999081,-0.44171142578125,0.0552978515625,0.82342529296875
1630678999081,-0.4490966796875,0.04248046875,0.81573486328125
1630678999081,-0.42529296875,0.0374755859375,0.93017578125
1630678999081,-0.4453125,0.050537109375,0.81793212890625
1630678999081,-0.42596435546875,0.03607177734375,0.9122314453125
1630678999112,-0.405517578125,0.05877685546875,0.8856201171875
1630678999112,-0.400146484375,0.0562744140625,0.8968505859375
1630678999128,-0.39910888671875,0.0570068359375,0.89947509765625
1630678999206,-0.39154052734375,0.04571533203125,0.9122314453125
1630678999206,-0.398681640625,0.03594970703125,0.9130859375
1630678999206,-0.3922119140625,0.039794921875,0.91790771484375
1630678999222,-0.39215087890625,0.0460205078125,0.90234375
1630678999222,-0.39837646484375,0.05267333984375,0.90252685546875
1630678999222,-0.3890380859375,0.04559326171875,0.90228271484375
1630678999253,-0.4051513671875,-0.0135498046875,0.982177734375
1630678999253,-0.4078369140625,0.00250244140625,0.9525146484375
1630678999253,-0.41204833984375,-0.0364990234375,0.9866943359375
1630678999331,-0.45147705078125,-0.0633544921875,0.8736572265625
1630678999331,-0.48779296875,0.01220703125,0.7691650390625
1630678999331,-0.459716796875,-0.0447998046875,0.814453125
1630678999331,-0.47955322265625,-0.023193359375,0.78759765625
1630678999331,-0.4796142578125,-0.0040283203125,0.7872314453125
1630678999331,-0.4384765625,-0.0726318359375,0.90948486328125
1630678999362,-0.50885009765625,0.033203125,0.7867431640625
1630678999362,-0.49945068359375,0.01910400390625,0.78253173828125
1630678999362,-0.5042724609375,0.0401611328125,0.8192138671875
1630678999394,-0.50579833984375,0.0377197265625,0.83392333984375
1630678999394,-0.5086669921875,0.03411865234375,0.82568359375
1630678999394,-0.52044677734375,0.034912109375,0.82037353515625
1630678999503,-0.5020751953125,0.05120849609375,0.82177734375
1630678999503,-0.528076171875,0.03814697265625,0.86572265625
1630678999503,-0.50653076171875,0.05645751953125,0.86962890625
1630678999503,-0.5164794921875,0.03167724609375,0.86968994140625
1630678999503,-0.51226806640625,0.03582763671875,0.8594970703125
1630678999503,-0.50640869140625,0.052978515625,0.8349609375
1630678999503,-0.50836181640625,0.02447509765625,0.8504638671875
1630678999518,-0.495849609375,0.05938720703125,0.8348388671875
1630678999518,-0.50439453125,0.06512451171875,0.8419189453125
1630678999612,-0.52252197265625,0.0589599609375,0.8680419921875
1630678999612,-0.5191650390625,0.0650634765625,0.85723876953125
1630678999612,-0.5272216796875,0.05975341796875,0.857177734375
1630678999662,-0.5189208984375,0.06976318359375,0.849609375
1630678999662,-0.52825927734375,0.0703125,0.80853271484375
1630678999662,-0.534423828125,0.0738525390625,0.831787109375
1630678999724,-0.55023193359375,0.08514404296875,0.8045654296875
1630678999724,-0.51129150390625,0.0732421875,0.90643310546875
1630678999724,-0.49462890625,0.07977294921875,0.78253173828125
1630678999724,-0.4989013671875,0.0792236328125,0.87939453125
1630678999724,-0.4923095703125,0.0880126953125,0.8309326171875
1630678999724,-0.51007080078125,0.0614013671875,0.952880859375
1630678999849,-0.4945068359375,0.013671875,0.85687255859375
1630678999849,-0.49371337890625,0.02459716796875,0.84637451171875
1630678999849,-0.49322509765625,0.02813720703125,0.8543701171875
1630678999849,-0.49713134765625,0.058837890625,0.83551025390625
1630678999849,-0.52001953125,0.04742431640625,0.83990478515625
1630678999849,-0.48699951171875,0.019775390625,0.845703125
1630678999849,-0.49249267578125,0.01800537109375,0.86224365234375
1630678999849,-0.4779052734375,0.05877685546875,0.8426513671875
1630678999865,-0.48638916015625,0.0423583984375,0.85833740234375
1630678999896,-0.47735595703125,0.01300048828125,0.85357666015625
1630678999896,-0.49102783203125,0.03448486328125,0.84649658203125
1630678999896,-0.48797607421875,0.0291748046875,0.85943603515625
1630679000037,-0.48779296875,0.00909423828125,0.86883544921875
1630679000037,-0.49017333984375,0.0078125,0.8681640625
1630679000037,-0.4871826171875,-0.0023193359375,0.8758544921875
1630679000084,-0.48919677734375,0.01715087890625,0.8712158203125
1630679000084,-0.4879150390625,0.0,0.86993408203125
1630679000084,-0.4884033203125,0.015869140625,0.86944580078125
1630679000131,-0.496826171875,0.011474609375,0.87469482421875
1630679000131,-0.49835205078125,0.021240234375,0.86358642578125
1630679000131,-0.48785400390625,0.00323486328125,0.86309814453125
1630679000146,-0.50970458984375,0.03680419921875,0.83294677734375
1630679000146,-0.498291015625,0.032958984375,0.84442138671875
1630679000146,-0.50225830078125,0.03753662109375,0.82257080078125
1630679000240,-0.5120849609375,0.03668212890625,0.8111572265625
1630679000240,-0.52734375,0.02960205078125,0.8468017578125
1630679000240,-0.5152587890625,0.03619384765625,0.80804443359375
1630679000255,-0.5267333984375,0.0296630859375,0.842529296875
1630679000255,-0.52740478515625,0.01849365234375,0.83587646484375
1630679000271,-0.53118896484375,0.00689697265625,0.8372802734375
1630679000302,-0.53277587890625,0.00286865234375,0.84234619140625
1630679000302,-0.51800537109375,0.00701904296875,0.83056640625
1630679000302,-0.5230712890625,0.01458740234375,0.8392333984375
1630679000396,-0.5029296875,0.04547119140625,0.8416748046875
1630679000396,-0.56414794921875,0.04058837890625,0.84222412109375
1630679000396,-0.533447265625,0.02618408203125,0.85076904296875
1630679000443,-0.51031494140625,0.02349853515625,0.833984375
1630679000443,-0.5185546875,0.01202392578125,0.80889892578125
1630679000443,-0.55072021484375,0.00933837890625,0.80572509765625
1630679000506,-0.50958251953125,0.01141357421875,0.8184814453125
1630679000506,-0.502685546875,0.0101318359375,0.8529052734375
1630679000506,-0.54052734375,0.01416015625,0.83966064453125
1630679000615,-0.51910400390625,0.01220703125,0.8310546875
1630679000615,-0.51531982421875,0.01312255859375,0.83599853515625
1630679000615,-0.52862548828125,0.0205078125,0.83062744140625
1630679000663,-0.515869140625,0.0137939453125,0.83587646484375
1630679000680,-0.50433349609375,0.0030517578125,0.84063720703125
1630679000680,-0.51800537109375,0.00360107421875,0.85699462890625
1630679000727,-0.50030517578125,0.0069580078125,0.84539794921875
1630679000727,-0.49090576171875,0.00714111328125,0.8487548828125
1630679000727,-0.52099609375,0.004638671875,0.84954833984375
1630679000742,-0.51800537109375,0.00250244140625,0.84912109375
1630679000742,-0.50067138671875,0.00653076171875,0.8492431640625
1630679000742,-0.51922607421875,0.0069580078125,0.840087890625
1630679000789,-0.5133056640625,0.01202392578125,0.84765625
1630679000789,-0.51275634765625,0.01727294921875,0.83758544921875
1630679000789,-0.515869140625,0.01324462890625,0.8424072265625
1630679000821,-0.51007080078125,0.003173828125,0.84722900390625
1630679000821,-0.51251220703125,0.01519775390625,0.8382568359375
1630679000821,-0.51031494140625,0.0093994140625,0.84619140625
1630679000977,-0.511474609375,0.00872802734375,0.84906005859375
1630679000977,-0.51153564453125,0.00244140625,0.84759521484375
1630679000977,-0.512451171875,0.003173828125,0.8482666015625
1630679001024,-0.514404296875,0.0101318359375,0.8450927734375
1630679001024,-0.5087890625,0.00677490234375,0.84173583984375
1630679001024,-0.5120849609375,0.0050048828125,0.8436279296875
1630679001149,-0.50970458984375,0.01898193359375,0.839111328125
1630679001149,-0.51409912109375,0.021728515625,0.83807373046875
1630679001149,-0.51446533203125,0.021484375,0.838134765625
1630679001164,-0.51507568359375,0.01416015625,0.85125732421875
1630679001164,-0.51922607421875,0.02099609375,0.8458251953125
1630679001164,-0.51593017578125,0.02569580078125,0.84466552734375
1630679001196,-0.517333984375,0.02459716796875,0.8389892578125
1630679001196,-0.51849365234375,0.0194091796875,0.83984375
1630679001196,-0.51751708984375,0.02642822265625,0.8477783203125
1630679001227,-0.51611328125,0.02215576171875,0.84197998046875
1630679001227,-0.51800537109375,0.02178955078125,0.84326171875
1630679001227,-0.5172119140625,0.0299072265625,0.84014892578125
1630679001242,-0.5177001953125,0.036376953125,0.82916259765625
1630679001242,-0.51409912109375,0.0289306640625,0.824462890625
1630679001242,-0.52099609375,0.03216552734375,0.832763671875
1630679001289,-0.51788330078125,0.04144287109375,0.82611083984375
1630679001289,-0.51263427734375,0.04730224609375,0.82177734375
1630679001289,-0.51947021484375,0.043212890625,0.82391357421875
1630679001368,-0.51690673828125,0.056396484375,0.82330322265625
1630679001383,-0.513671875,0.0654296875,0.8431396484375
1630679001383,-0.515380859375,0.06121826171875,0.83935546875
1630679001511,-0.50775146484375,0.06634521484375,0.8505859375
1630679001511,-0.503173828125,0.05560302734375,0.86163330078125
1630679001526,-0.51434326171875,0.06976318359375,0.85003662109375
1630679001557,-0.50213623046875,0.03948974609375,0.85650634765625
1630679001557,-0.5018310546875,0.009765625,0.8658447265625
1630679001557,-0.498046875,0.02362060546875,0.8624267578125
1630679001573,-0.51055908203125,-0.0076904296875,0.8331298828125
1630679001573,-0.5101318359375,-0.0069580078125,0.834228515625
1630679001573,-0.5120849609375,-0.00592041015625,0.84796142578125
1630679001589,-0.50494384765625,-0.00274658203125,0.82989501953125
1630679001589,-0.501953125,-0.00225830078125,0.84375
1630679001589,-0.5025634765625,-0.00244140625,0.85302734375
1630679001699,-0.51226806640625,-0.005615234375,0.85894775390625
1630679001699,-0.50653076171875,0.005126953125,0.84576416015625
1630679001699,-0.50567626953125,0.00787353515625,0.83306884765625
1630679001777,-0.5067138671875,0.01629638671875,0.83038330078125
1630679001793,-0.49127197265625,0.01800537109375,0.81561279296875
1630679001793,-0.48297119140625,0.02069091796875,0.82257080078125
1630679001871,-0.4862060546875,-0.006103515625,0.88348388671875
1630679001871,-0.48748779296875,0.00335693359375,0.8565673828125
1630679001871,-0.47039794921875,-0.00555419921875,0.8917236328125
1630679001871,-0.478759765625,0.0146484375,0.83782958984375
1630679001886,-0.49298095703125,0.019287109375,0.820556640625
1630679001886,-0.48834228515625,0.0238037109375,0.81951904296875
1630679001949,-0.44793701171875,-0.00897216796875,0.88214111328125
1630679001949,-0.45574951171875,-0.00958251953125,0.889892578125
1630679001965,-0.4595947265625,-0.0096435546875,0.88726806640625
1630679002027,-0.44415283203125,-0.00543212890625,0.8935546875
1630679002027,-0.44091796875,0.00848388671875,0.9072265625
1630679002027,-0.4390869140625,0.000732421875,0.89215087890625
1630679002042,-0.4349365234375,0.01409912109375,0.9063720703125
1630679002042,-0.4327392578125,0.00787353515625,0.91094970703125
1630679002042,-0.42919921875,0.00701904296875,0.8980712890625
1630679002136,-0.412841796875,0.02215576171875,0.91473388671875
1630679002136,-0.41802978515625,0.01422119140625,0.906494140625
1630679002136,-0.42333984375,0.01031494140625,0.908203125
1630679002136,-0.41552734375,0.02099609375,0.9075927734375
1630679002152,-0.4071044921875,0.014892578125,0.93487548828125
1630679002152,-0.41064453125,0.019287109375,0.92535400390625
1630679002230,-0.4031982421875,0.01641845703125,0.96917724609375
1630679002230,-0.40826416015625,0.01580810546875,0.95635986328125
1630679002230,-0.40655517578125,0.01666259765625,0.97955322265625
1630679002339,-0.4185791015625,0.01934814453125,0.9486083984375
1630679002339,-0.41363525390625,0.02056884765625,0.973876953125
1630679002339,-0.415283203125,0.0196533203125,0.98663330078125
1630679002355,-0.468994140625,0.01580810546875,0.81866455078125
1630679002370,-0.50347900390625,0.0185546875,0.78607177734375
1630679002370,-0.43072509765625,0.01385498046875,0.89764404296875
1630679002370,-0.515625,0.0191650390625,0.78179931640625
1630679002370,-0.48651123046875,0.01971435546875,0.80987548828125
1630679002370,-0.45245361328125,0.0157470703125,0.8516845703125
1630679002529,-0.54833984375,0.0157470703125,0.76544189453125
1630679002529,-0.53857421875,0.01568603515625,0.76812744140625
1630679002529,-0.5263671875,0.01904296875,0.77105712890625
1630679002607,-0.53521728515625,0.03045654296875,0.736572265625
1630679002607,-0.541748046875,0.02862548828125,0.72955322265625
1630679002607,-0.5374755859375,0.02911376953125,0.71502685546875
1630679002623,-0.5484619140625,0.02423095703125,0.73895263671875
1630679002623,-0.548828125,0.02008056640625,0.75311279296875
1630679002623,-0.548095703125,0.01708984375,0.76190185546875
1630679002654,-0.54010009765625,0.0289306640625,0.7825927734375
1630679002654,-0.5201416015625,0.02587890625,0.8367919921875
1630679002654,-0.50079345703125,0.0263671875,0.8743896484375
1630679002857,-0.4544677734375,0.013427734375,0.9298095703125
1630679002857,-0.47406005859375,0.0140380859375,0.93353271484375
1630679002857,-0.49676513671875,0.022216796875,0.92974853515625
1630679002873,-0.4345703125,0.01812744140625,0.92236328125
1630679002873,-0.42510986328125,0.02105712890625,0.92388916015625
1630679002889,-0.415771484375,0.0242919921875,0.917236328125
1630679003060,-0.39337158203125,0.02972412109375,0.92144775390625
1630679003076,-0.39642333984375,0.03265380859375,0.91888427734375
1630679003076,-0.40155029296875,0.02874755859375,0.91046142578125
1630679003076,-0.38250732421875,0.033203125,0.92266845703125
1630679003076,-0.4068603515625,0.0272216796875,0.9122314453125
1630679003076,-0.37371826171875,0.03363037109375,0.9188232421875
1630679003107,-0.3477783203125,0.027099609375,0.92840576171875
1630679003107,-0.3707275390625,0.032470703125,0.93218994140625
1630679003107,-0.34796142578125,0.027099609375,0.9317626953125
1630679003107,-0.349853515625,0.025390625,0.92852783203125
1630679003107,-0.360107421875,0.03387451171875,0.93157958984375
1630679003107,-0.3631591796875,0.0357666015625,0.93682861328125
1630679003107,-0.3543701171875,0.03729248046875,0.9310302734375
1630679003107,-0.3507080078125,0.0350341796875,0.93389892578125
1630679003107,-0.34759521484375,0.03448486328125,0.926025390625
1630679003139,-0.3526611328125,0.0262451171875,0.9493408203125
1630679003139,-0.354736328125,0.02740478515625,0.94769287109375
1630679003139,-0.35076904296875,0.0247802734375,0.93963623046875
1630679003435,-0.3697509765625,0.02447509765625,0.94415283203125
1630679003435,-0.3541259765625,0.0244140625,0.9534912109375
1630679003435,-0.365478515625,0.02410888671875,0.94622802734375
1630679003609,-0.3760986328125,0.02850341796875,0.92218017578125
1630679003609,-0.3741455078125,0.02398681640625,0.92913818359375
1630679003609,-0.38653564453125,0.03118896484375,0.9244384765625
1630679003687,-0.39715576171875,0.03570556640625,0.92266845703125
1630679003687,-0.38861083984375,0.03399658203125,0.91259765625
1630679003687,-0.40277099609375,0.03375244140625,0.91705322265625
1630679003781,-0.4080810546875,0.0247802734375,0.90582275390625
1630679003781,-0.4052734375,0.02606201171875,0.9039306640625
1630679003781,-0.4019775390625,0.02679443359375,0.92022705078125
1630679003859,-0.40264892578125,0.0322265625,0.8978271484375
1630679003859,-0.40631103515625,0.03509521484375,0.9007568359375
1630679003875,-0.4105224609375,0.0369873046875,0.89276123046875
1630679003922,-0.41241455078125,0.0386962890625,0.89013671875
1630679003922,-0.41357421875,0.04144287109375,0.8858642578125
1630679003922,-0.40679931640625,0.04193115234375,0.87628173828125
1630679004140,-0.40631103515625,0.03704833984375,0.88397216796875
1630679004140,-0.40972900390625,0.04058837890625,0.8834228515625
1630679004140,-0.40753173828125,0.04425048828125,0.8753662109375
1630679004188,-0.40899658203125,0.03466796875,0.9088134765625
1630679004203,-0.40338134765625,0.03466796875,0.88916015625
1630679004203,-0.40484619140625,0.03814697265625,0.90509033203125
1630679004312,-0.4053955078125,0.043701171875,0.89874267578125
1630679004312,-0.4127197265625,0.03466796875,0.89056396484375
1630679004312,-0.39599609375,0.0386962890625,0.90069580078125
1630679004343,-0.403076171875,0.03759765625,0.89422607421875
1630679004343,-0.40997314453125,0.03564453125,0.90362548828125
1630679004343,-0.420166015625,0.030517578125,0.89654541015625
1630679004406,-0.4219970703125,0.03173828125,0.8841552734375
1630679004406,-0.42529296875,0.0330810546875,0.89459228515625
1630679004406,-0.42071533203125,0.02874755859375,0.898681640625
1630679004453,-0.42669677734375,0.03729248046875,0.8828125
1630679004453,-0.42608642578125,0.04095458984375,0.88848876953125
1630679004453,-0.42095947265625,0.0396728515625,0.89794921875
1630679004799,-0.41357421875,0.03350830078125,0.90264892578125
1630679004799,-0.412841796875,0.029296875,0.89862060546875
1630679004799,-0.414794921875,0.033935546875,0.90350341796875
1630679004799,-0.41815185546875,0.036376953125,0.90631103515625
1630679004814,-0.41473388671875,0.03607177734375,0.9014892578125
1630679004814,-0.4163818359375,0.0321044921875,0.90472412109375
1630679005095,-0.4102783203125,0.03375244140625,0.89068603515625
1630679005095,-0.40362548828125,0.03948974609375,0.89288330078125
1630679005095,-0.40582275390625,0.0345458984375,0.89361572265625
1630679005158,-0.40557861328125,0.03326416015625,0.8988037109375
1630679005174,-0.39794921875,0.0355224609375,0.9129638671875
1630679005174,-0.39739990234375,0.03515625,0.91162109375
1630679005174,-0.39984130859375,0.04254150390625,0.91046142578125
1630679005174,-0.40771484375,0.0333251953125,0.91796875
1630679005174,-0.3985595703125,0.03533935546875,0.91064453125
1630679005267,-0.41143798828125,0.03765869140625,0.9010009765625
1630679005267,-0.40936279296875,0.034423828125,0.8985595703125
1630679005267,-0.4072265625,0.029296875,0.8988037109375
1630679005299,-0.42169189453125,0.03814697265625,0.9031982421875
1630679005299,-0.4212646484375,0.039306640625,0.8994140625
1630679005299,-0.42022705078125,0.03924560546875,0.89251708984375
1630679005518,-0.42242431640625,0.0491943359375,0.88970947265625
1630679005518,-0.42266845703125,0.04144287109375,0.89056396484375
1630679005518,-0.41998291015625,0.0411376953125,0.89483642578125
1630679005677,-0.41717529296875,0.03857421875,0.89349365234375
1630679005677,-0.41717529296875,0.03204345703125,0.8955078125
1630679005677,-0.41802978515625,0.03936767578125,0.8956298828125
1630679005708,-0.4212646484375,0.03448486328125,0.8924560546875
1630679005708,-0.42132568359375,0.0401611328125,0.89190673828125
1630679005708,-0.4205322265625,0.03857421875,0.8936767578125
1630679005833,-0.41998291015625,0.03155517578125,0.89666748046875
1630679005833,-0.4202880859375,0.03106689453125,0.894287109375
1630679005833,-0.41973876953125,0.03082275390625,0.8922119140625
1630679005848,-0.414794921875,0.03118896484375,0.8935546875
1630679005848,-0.42120361328125,0.03631591796875,0.8975830078125
1630679005848,-0.42132568359375,0.0335693359375,0.90093994140625
1630679005880,-0.41595458984375,0.041015625,0.89129638671875
1630679005880,-0.41571044921875,0.03717041015625,0.89483642578125
1630679005880,-0.413818359375,0.036865234375,0.8966064453125
1630679006176,-0.41387939453125,0.03887939453125,0.89605712890625
1630679006176,-0.41741943359375,0.03582763671875,0.89434814453125
1630679006176,-0.41436767578125,0.04327392578125,0.89739990234375
1630679006223,-0.4161376953125,0.0330810546875,0.91265869140625
1630679006223,-0.41595458984375,0.03521728515625,0.89715576171875
1630679006223,-0.41351318359375,0.0322265625,0.90234375
1630679006426,-0.41595458984375,0.04656982421875,0.8956298828125
1630679006426,-0.40472412109375,0.10858154296875,0.87762451171875
1630679006426,-0.400146484375,0.13079833984375,0.85296630859375
1630679006426,-0.41693115234375,0.042236328125,0.89483642578125
1630679006426,-0.41680908203125,0.046142578125,0.89129638671875
1630679006426,-0.4139404296875,0.0457763671875,0.89569091796875
1630679006426,-0.4090576171875,0.10174560546875,0.89141845703125
1630679006426,-0.41424560546875,0.0440673828125,0.8980712890625
1630679006426,-0.4169921875,0.04498291015625,0.8968505859375
1630679006458,-0.390380859375,0.1187744140625,0.841796875
1630679006458,-0.38848876953125,0.07281494140625,0.8843994140625
1630679006458,-0.3905029296875,0.09228515625,0.857177734375
1630679006600,-0.369384765625,0.00848388671875,0.96563720703125
1630679006600,-0.36334228515625,0.005126953125,0.9444580078125
1630679006757,-0.35577392578125,0.06011962890625,0.9239501953125
1630679006757,-0.35113525390625,0.06146240234375,0.927001953125
1630679006757,-0.3555908203125,0.05682373046875,0.9150390625
1630679006866,-0.35406494140625,0.0584716796875,0.93804931640625
1630679006866,-0.35333251953125,0.05914306640625,0.9317626953125
1630679006866,-0.35003662109375,0.06005859375,0.93096923828125
1630679006944,-0.3641357421875,0.0595703125,0.925048828125
1630679006944,-0.36065673828125,0.0614013671875,0.91864013671875
1630679006944,-0.3668212890625,0.06005859375,0.91302490234375
1630679007022,-0.3685302734375,0.060546875,0.9046630859375
1630679007022,-0.37249755859375,0.0582275390625,0.9102783203125
1630679007022,-0.370849609375,0.0618896484375,0.910400390625
1630679007085,-0.36981201171875,0.05975341796875,0.91748046875
1630679007085,-0.3670654296875,0.05596923828125,0.91448974609375
1630679007100,-0.36956787109375,0.053955078125,0.9207763671875
1630679007178,-0.3624267578125,0.05706787109375,0.919677734375
1630679007178,-0.3646240234375,0.05908203125,0.92242431640625
1630679007178,-0.36688232421875,0.05914306640625,0.92181396484375
1630679007178,-0.3648681640625,0.06109619140625,0.91900634765625
1630679007178,-0.3665771484375,0.060302734375,0.92059326171875
1630679007178,-0.36749267578125,0.05303955078125,0.92059326171875
1630679007225,-0.36834716796875,0.0645751953125,0.92041015625
1630679007225,-0.365234375,0.05908203125,0.9195556640625
1630679007225,-0.3665771484375,0.0604248046875,0.9195556640625
1630679007225,-0.36376953125,0.05718994140625,0.91741943359375
1630679007225,-0.36279296875,0.0599365234375,0.91986083984375
1630679007225,-0.364013671875,0.06207275390625,0.92095947265625
1630679007475,-0.361083984375,0.04815673828125,0.923583984375
1630679007475,-0.3631591796875,0.058349609375,0.91827392578125
1630679007475,-0.3641357421875,0.0570068359375,0.9217529296875
